Time dt accelX accelY accelZ omegaX omegaY omegaZ
46534.47837579 46534.47837579 1.7114864219577 0.1717911743144 9.80533438749 -0.0032006241515747 0.031231284764596 -0.0063569265706488
46536.397971133 1.91959534300258 0.83423778879884 0.68519339662861 10.098361301744 0.0061682862311423 0.0074921554772265 0.018982074411509
46536.407975484 0.0100043509955867 0.86576212047901 0.68649938713432 10.032802106483 0.005952543296471 0.0069608321556425 0.017633263249783
46536.418163923 0.010188439002377 0.91519280240716 0.62523947906417 9.9558217905103 0.0062926618020003 0.0081727073322961 0.016779273762316
46536.428073084 0.00990916099544847 0.89006888204609 0.52654855720454 9.9227735219338 0.0082677625317003 0.0073848012324517 0.016011382697968
46536.43803807 0.00996498600579798 0.84546354973917 0.48439127362386 9.9252224936437 0.011682098151945 0.005362081047584 0.016357675293273
46536.448204656 0.0101665859983768 0.7935240172783 0.58583758258028 9.8490341195971 0.015422783429153 0.0065407688904464 0.015396523999282
46536.458218421 0.0100137650006218 0.72785041468655 0.61697194519324 9.6780140016576 0.01614836591478 0.0073251535568794 0.01490054539939
46536.468137136 0.009918714997184 0.79448785248357 0.55484615341425 9.7008869014089 0.015652111027563 0.0003583805233475 0.014958963589481
46536.478104391 0.00996725499862805 0.80246967461103 0.52063923040212 9.7694238661976 0.014936294373429 -0.0012763765551546 0.015053619051059
46536.488107245 0.0100028540036874 0.76254422341938 0.6398383458418 9.705790286268 0.014936850217415 0.0016945799281186 0.0149465761934
46536.497991932 0.0098846870023408 0.79081258990647 0.69941259396553 9.5733567433278 0.0094878226848024 0.00032139293890078 0.01523208976439
46536.508004021 0.0100120889983373 0.8339957014205 0.5570157048707 9.5788082318286 0.003353149282082 -0.0040693160019343 0.015572276299732
46536.518074282 0.0100702609997825 0.78907134620743 0.44119834914009 9.5612269970543 0.0019981768897697 -0.0039299186016442 0.015237434854772
46536.527981651 0.00990736899984768 0.72739564427631 0.53667359676908 9.4864179474962 0.0022249503563042 -0.0044534308113976 0.016007319626556
46536.538021677 0.0100400259980233 0.71578629763487 0.59136755725372 9.4840452553717 0.00044370780285861 -0.0093744161896879 0.015872721682573
46536.547950822 0.0099291450023884 0.71811335298964 0.59762742366566 9.552678467066 -0.0032453483675702 -0.012547753761235 0.016818813430187
46536.557999431 0.0100486090013874 0.73492635004119 0.63546831011581 9.5071566970061 -0.0055080461124347 -0.01120559069705 0.017286991415659
46536.567995396 0.00999596499605104 0.72341739753501 0.70255306359844 9.4968881924552 -0.0098793391955695 -0.014150752092492 0.01798194270331
46536.577965282 0.00996988599945325 0.74154978790476 0.66033510405867 9.5954099635869 -0.014391438316234 -0.018797639278618 0.018055151297813
46536.588004853 0.0100395710032899 0.80515731971905 0.65026483844987 9.6762284690489 -0.016762722568799 -0.020803493386826 0.018127878603141
46536.59796822 0.00996336699608946 0.78357872176119 0.67589011268239 9.6810241986915 -0.018130314183479 -0.018875469378802 0.01838169681267
46536.607932465 0.00996424500044668 0.77321691349701 0.70839659578003 9.6978355688878 -0.019448767055957 -0.020661148971981 0.01825694229077
46536.618084055 0.0101515900023514 0.81834937647246 0.67974710641303 9.6947102335546 -0.020905451997564 -0.021139476626184 0.017934900947154
46536.627937427 0.00985337200108916 0.80184197000159 0.61899004045107 9.7289086985214 -0.019875634197929 -0.021609055132257 0.017526165805081
46536.637943072 0.0100056449955446 0.81655067450135 0.64096653438341 9.7332273937432 -0.01815128906824 -0.022678696862418 0.017012240934319
46536.647938137 0.00999506500374991 0.80992807332615 0.6238115542259 9.7455082846817 -0.015485595708004 -0.023656892333055 0.015814904794171
46536.657945077 0.0100069399995846 0.77552886232723 0.59871482109202 9.7737370419795 -0.013071256351803 -0.023685858483097 0.016141169075045
46536.667991572 0.0100464950010064 0.78170453297814 0.51520759792821 9.8193464856826 -0.011755567899033 -0.025474479710633 0.016130493713789
46536.677951307 0.00995973499811953 0.81369885303142 0.49248145823898 9.9390995128302 -0.0086572327141778 -0.027764307754038 0.01607041965672
46536.687966927 0.0100156199987396 0.82175402507671 0.57772923950313 9.9497945859056 -0.0054476478070511 -0.025254161590932 0.014921356708212
46536.697943256 0.00997632900543977 0.8274909213152 0.59999985357766 9.9027403980198 -0.0068820006359935 -0.022378037352292 0.01325465320198
46536.707992273 0.0100490169934346 0.87117228311792 0.54538487554101 9.8937493383168 -0.0089382005405945 -0.023609831749448 0.012584955221683
46536.718114171 0.010121898005309 0.84917144065023 0.46444714420986 9.8839769375693 -0.010882470459505 -0.022037856987031 0.013304211938431
46536.727966174 0.00985200300056022 0.8153657245527 0.43702007257838 9.7945053969339 -0.011543599890579 -0.019717678438976 0.013167080147666
46536.737926431 0.00996025699714664 0.78723086586979 0.46883206169163 9.7797895873938 -0.013493059906993 -0.02098552667313 0.013628018125516
46536.747938233 0.0100118019981892 0.74471623598932 0.50349225243788 9.7952861492847 -0.016711600920944 -0.02044019767216 0.013920815406689
46536.758140712 0.0102024790030555 0.72372880059093 0.5814334145722 9.754128226892 -0.019279360782802 -0.019796668021336 0.014580693095686
46536.768001332 0.00986061999719823 0.76140448050229 0.59845340238637 9.8221489928582 -0.023914456665382 -0.022833167818136 0.015365089131333
46536.777978143 0.00997681100125192 0.80503880842694 0.55743539202841 9.9353916439295 -0.028754288165575 -0.023602192645416 0.016690325761633
46536.787955924 0.00997778100281721 0.8188629871629 0.52360508322415 10.04342289734 -0.030463644940738 -0.020588363748603 0.016592776897388
46536.797911583 0.00995565899938811 0.79722353908847 0.58222432074053 10.066744462739 -0.031256598199628 -0.018188609186313 0.01721036036278
46536.807944446 0.0100328629996511 0.8024100082252 0.58942067262945 10.094877793328 -0.033741108469683 -0.017219817808366 0.017150306308363
46536.818041644 0.01009719799913 0.83909850699142 0.47159257173503 10.179976124329 -0.034481942199231 -0.017651845137111 0.016505260362108
46536.827997424 0.00995577999856323 0.8320937309427 0.54006868597478 10.21785470568 -0.031279150869346 -0.013919568366544 0.016519471307792
46536.837913042 0.00991561800037744 0.7667846713013 0.53974338307856 10.215971499828 -0.029714778238944 -0.010652633111563 0.016870550611623
46536.847912431 0.00999938900349662 0.7646869706061 0.55383687561678 10.255365774854 -0.027479061503103 -0.012449238144828 0.01624796801988
46536.857898508 0.0099860769987572 0.78751892501519 0.50794634427426 10.361465908625 -0.025611702277637 -0.011097852423104 0.015276272816898
46536.867989741 0.0100912330017309 0.77283108626291 0.49050939263312 10.379831022332 -0.021918446935992 -0.0063911745596384 0.014280831894363
46536.877939844 0.00995010299811838 0.78788642332347 0.49664298373815 10.332771368982 -0.018957679895593 -0.0049299983756927 0.013253207110209
46536.887906136 0.00996629199653398 0.81305845982495 0.42621153617743 10.338370663635 -0.017630527911254 -0.0039144986193388 0.011851726043677
46536.897899367 0.00999323100404581 0.79996969085121 0.39217480575082 10.306920064089 -0.013797948724566 -0.00054782382643794 0.011026467137126
46536.907941256 0.0100418889996945 0.75461423722353 0.42682858488819 10.281642054476 -0.011702756415881 0.0020468497475277 0.011449997066557
46536.917960544 0.0100192879981478 0.74043710164 0.43951429715496 10.229645746305 -0.011529842953499 0.0041263222853986 0.010777997506573
46536.928087742 0.0101271980020101 0.726946536394 0.33172215258172 10.162078884359 -0.012797366510474 0.0051858739425888 0.010808297880587
46536.938157482 0.0100697399975616 0.7291295559349 0.25592382969446 10.146947051705 -0.011306761533903 0.0064464928512005 0.011578053198499
46536.948129197 0.00997171500057448 0.73575512254466 0.24134025524029 10.033044993949 -0.0092582473038175 0.0082260189235204 0.010886845218724
46536.958014988 0.00988579099794151 0.68225685416296 0.22204421695425 10.013868244857 -0.0078890102082449 0.010278616084992 0.010872318435916
46536.969289087 0.0112740990007296 0.69156332603852 0.10836758441111 10.023458008128 -0.0063741586770081 0.0089948236722435 0.011674470670528
46536.977952194 0.00866310700075701 0.71166882713274 0.036102446749444 10.090139306909 -0.0029010348754569 0.009919600121407 0.011792300069949
46536.987946524 0.00999433000106364 0.68065350306283 0.12695707973703 9.9563934108728 0.0025801203558616 0.015553660103196 0.011907455059457
46536.997963128 0.0100166039992473 0.65045047760341 0.22521351777647 9.7759593992418 0.0044056023024824 0.016670611087717 0.013052336800538
46537.007950381 0.00998725299723446 0.6918279059629 0.075106490110003 9.7779304893556 0.00380176195711 0.013240019424559 0.013815486280457
46537.018097826 0.010147445005714 0.71646872006846 0.026955516593502 9.8155009159522 0.0069964976635435 0.013273016510875 0.012758663338389
46537.028008766 0.00991093999618897 0.61795341205819 0.15108718910448 9.7370507785594 0.009203523014012 0.018999564034244 0.013660363837631
46537.037942306 0.0099335400009295 0.55121040024946 0.30243911073881 9.6342481617755 0.0086929945619102 0.017127629429107 0.014122309261986
46537.047938981 0.00999667499854695 0.60081384021204 0.35664324412798 9.6330109375092 0.0067905453776237 0.014385985014741 0.013922462872688
46537.057982111 0.0100431300015771 0.57190676418024 0.42835175750879 9.6604142968828 0.0045014635709801 0.01693958726253 0.013161593441785
46537.068015846 0.0100337350013433 0.5340457495532 0.51162399388247 9.6422171523504 0.0030537440353331 0.016186649173151 0.013630854425517
46537.077967017 0.00995117099955678 0.58679388712022 0.5675253948001 9.6944145794978 0.00054068243003313 0.012399651797178 0.01440472626169
46537.087961415 0.00999439800216351 0.58406480405219 0.55192158558008 9.7137173925731 -0.0023604199344718 0.013644704027601 0.012820017322436
46537.097881545 0.00992012999631697 0.54300008344436 0.58646334774307 9.6193497836872 -0.0030698569443011 0.016766998423461 0.012826014724071
46537.107933649 0.0100521040003514 0.54466507092771 0.56270884558161 9.6274723161341 -0.0038528784026559 0.012952948659942 0.01403411251546
46537.117925677 0.00999202799721388 0.57009531028855 0.51256251874437 9.727136468714 -0.0032134466422575 0.011355006360951 0.013281995638141
46537.127884324 0.00995864700234961 0.54066601374527 0.49483814093271 9.7735259984069 -5.242964591889e-005 0.012030755406808 0.01284219629242
46537.137887021 0.010002697003074 0.49552111168348 0.55861241979281 9.8204420986459 0.0027784348009689 0.011406642095787 0.011670366848557
46537.14788125 0.00999422899622004 0.52662794493096 0.53905055682389 9.787105783849 0.0035586695808236 0.0093326457814188 0.011092811821273
46537.157875573 0.00999432300159242 0.55428375319131 0.5331479733003 9.7682199162716 0.0050888691437001 0.010641748914206 0.0097213900480824
46537.167879976 0.0100044029968558 0.52616119021262 0.48529077730526 9.7288569288309 0.0048040387721451 0.012277986577075 0.01026268154087
46537.177906728 0.0100267520028865 0.48991201168072 0.32849716070947 9.7254883895063 0.0036994329563233 0.010631288590514 0.0091297793097395
46537.18796416 0.0100574320022133 0.46763520992861 0.35861758660305 9.7362601310803 0.0054515180128748 0.0095825953019368 0.0099578124132786
46537.197907444 0.0099432839997462 0.40687992843932 0.40187494861259 9.5770261114183 0.0048347903109436 0.011806706006646 0.0091331405512868
46537.207912387 0.010004942996602 0.37260793917342 0.4013087063207 9.5556921947055 0.002333571764302 0.0069322001056493 0.0098361694685938
46537.217986461 0.01007407400175 0.37734674829741 0.3119224003726 9.6140433654997 0.00023153599965674 0.0022383700898019 0.011330744048305
46537.227881181 0.00989472000219394 0.3794097360528 0.25511404031671 9.6818368606747 -0.00049169440029178 0.0019716145763316 0.012236632441059
46537.237895208 0.0100140270005795 0.36284827564488 0.3340569342692 9.7060113315735 -0.00096694024024801 0.0010983723898819 0.0117496375749
46537.247862804 0.0099675959936576 0.37157103429815 0.39986839412882 9.6859396318375 -0.0045988992042108 0.0008511165313996 0.012778691938665
46537.257871331 0.0100085270023555 0.42742037915343 0.3641731350095 9.6434236870619 -0.0088320643235792 -0.00049755094831034 0.014989888147865
46537.267883762 0.010012430997449 0.45420732228041 0.26127716475807 9.6448151340026 -0.010592754675042 -0.0022814183060638 0.014637404925686
46537.277893848 0.0100100859999657 0.45179122393835 0.21415059004436 9.6923028639022 -0.010044841473786 -0.0036807055601542 0.015228794186833
46537.287936418 0.0100425700002234 0.4004475403476 0.27493800153771 9.6876524343169 -0.0064036152527181 -0.0020890997261311 0.015882975058808
46537.297860117 0.00992369900632184 0.39475540929546 0.30685230130705 9.6793045691693 -0.0035290729648104 -0.0045882347672114 0.015816528799987
46537.30788739 0.0100272729978315 0.47333209790114 0.34356445611099 9.7090188837939 -0.0001767120200888 -0.0079184995521297 0.015472049479989
46537.317858491 0.00997110099706333 0.46741728321597 0.39471978769434 9.6534110512249 0.0028857947829245 -0.0053312246193103 0.01446674205799
46537.3280593 0.010200809003436 0.45161969073357 0.31091181954019 9.5964393935411 0.0045724255654858 -0.0055500409264137 0.014102730749292
46537.337863002 0.00980370199977187 0.45337173712354 0.23655504660916 9.66814848451 0.007437061730663 -0.0096420347874517 0.013088321136898
46537.347925053 0.0100620509983855 0.47166097655501 0.27040178961779 9.6707362118335 0.012738502471064 -0.0097242295693339 0.012566572966363
46537.357878095 0.00995304199750535 0.45030683007176 0.35360652117512 9.7051107800584 0.016310227100404 -0.010095595133934 0.012013587021409
46537.367879232 0.0100011370013817 0.46554580556099 0.42956554299885 9.7934741630497 0.017403693035343 -0.013174255863844 0.011473048968198
46537.377881463 0.0100022309998167 0.43772893472684 0.47760071154903 9.8060330385922 0.015666139080042 -0.0091416174842672 0.011105091622968
46537.387955333 0.0100738699984504 0.41618459451782 0.40218060481667 9.7763280828034 0.012924718218036 -0.0067788748616271 0.010841827879523
46537.397880683 0.00992535000114003 0.52580690534014 0.32052351409417 9.7667988703829 0.01077751048533 -0.011099043632383 0.0099040536975943
46537.40790448 0.0100237970036687 0.53407086953912 0.37322998698004 9.8629490398255 0.010540883912531 -0.0091701870875256 0.010480945642955
46537.41807487 0.0101703899999848 0.50389523910825 0.39479548893304 9.7989216838516 0.011433251325651 -0.0054711590243967 0.0095343037965119
46537.428084571 0.0100097009999445 0.53670095324202 0.37526616559308 9.9307984312739 0.011153763626803 -0.0092494851707372 0.010072158227035
46537.437980703 0.00989613199635642 0.52198581025571 0.32599624075412 10.038408666583 0.011243199082783 -0.0065450623951267 0.01016033449298
46537.44806434 0.0100836370038451 0.49231793871736 0.332131804641 9.9510023665954 0.012865719220365 0.00072469696414235 0.011385784319033
46537.45800954 0.00994519999949262 0.52762524790975 0.43943703394485 9.9017270116061 0.013578861337311 0.00043749241952099 0.010555416671178
46537.46813436 0.0101248200007831 0.56873646072329 0.48401147885312 9.8326929598652 0.011716032136714 0.0034213685565928 0.010559104170501
46537.478091534 0.00995717399928253 0.5374559916148 0.36912475702516 9.7884290158854 0.008596627316207 0.0066086632731039 0.0099262385449261
46537.487979236 0.00988770199910505 0.54419759287258 0.31797104347138 9.8600646635026 0.010086633218776 0.0025378637821383 0.0090283027631871
46537.497926082 0.00994684599572793 0.54553295394169 0.43289038695067 9.9713249639772 0.01183463823596 0.0029266842148176 0.0086550573487091
46537.507880886 0.00995480400160886 0.47345301085044 0.60566182890807 9.9629812193806 0.011253442500566 0.0090846815825949 0.0068662987464027
46537.517922611 0.0100417249996099 0.46083005922287 0.66854755457186 10.041989036474 0.0063089261254808 0.0089054793452057 0.0072868539344423
46537.527898619 0.00997600800474174 0.51077555033944 0.61824542138608 10.131615681002 0.00028058720665864 0.0099606574434249 0.006478825844276
46537.537860333 0.00996171400038293 0.53519921778852 0.60743860817817 10.078633328852 -0.0014655008743402 0.016668558826911 0.0050285019676346
46537.547854786 0.00999445299385116 0.54778433512025 0.60164281695145 10.052918329524 -0.0046041757431891 0.017067775002874 0.0044572266724894
46537.557819714 0.00996492800186388 0.59077668485221 0.61624639440873 10.146530580096 -0.0049065493817108 0.015931108752443 0.004552142671616
46537.567813213 0.00999349899939261 0.54071018212438 0.65997943524742 10.122450993081 -0.0063425669744541 0.023667942439577 0.0047918212708736
46537.577860052 0.0100468390010064 0.47341865480572 0.63977751996031 10.042658344119 -0.007801681928286 0.02661875107364 0.0040355480802425
46537.587851068 0.00999101599882124 0.50479585658486 0.58344089196626 10.081589592501 -0.0097034296390431 0.023971438412594 0.0033162158682062
46537.59786753 0.0100164620016585 0.53107647809713 0.55695975817132 9.9822161536261 -0.010709415193187 0.028424722650705 0.0019127834879752
46537.607830206 0.00996267599839484 0.51044000638256 0.55047079444562 9.8673587305821 -0.011959002914209 0.032099014253099 0.0011818659647789
46537.617837863 0.0100076570015517 0.52429400542518 0.51291517527878 9.8623549209948 -0.012581652477077 0.029243162115134 0.00050358607006211
46537.627833938 0.00999607500125421 0.5313599046114 0.45109789898696 9.8263316828456 -0.012818404605516 0.031230187797864 0.00059304815955279
46537.637833453 0.00999951500125462 0.47564091891969 0.38073321413892 9.7234869304188 -0.011347143914688 0.034212159628185 0.00039309093561987
46537.647874269 0.0100408159996732 0.48476978108174 0.30917823201808 9.7318438908559 -0.010387572327485 0.031213335683957 -0.00092287270472311
46537.657843871 0.0099696019969997 0.50373431391948 0.25464149721537 9.7656173072276 -0.0078724364783624 0.031223335331363 -0.0025214417990146
46537.667874376 0.0100305050000316 0.45403416683156 0.33146527263306 9.6639447111434 -0.005896571006608 0.035226335031659 -0.0030162255291624
46537.677840537 0.0099661610001931 0.45930904180682 0.3001054817381 9.6463580044719 -0.0068615853556168 0.03293638477691 -0.0030737916997881
46537.68790181 0.0100612730020657 0.5094376855358 0.18485965947739 9.7531643038011 -0.0085458475522743 0.030514427060374 -0.0033627229448199
46537.697830511 0.00992870100162691 0.48972203270543 0.17969071055578 9.727414658231 -0.0074094704194331 0.035309263001318 -0.0050378145030969
46537.7078297 0.00999918899469776 0.43018372779961 0.29115710397241 9.6234474594963 -0.0069760498565182 0.03776487355112 -0.0050546423276324
46537.717931414 0.0101017140041222 0.45702116862967 0.26416353837655 9.5577553405719 -0.0087346423780404 0.035142142518452 -0.0055939459784875
46537.727851875 0.00992046100145672 0.49070799333522 0.10158400762007 9.6013520394861 -0.0096504460213344 0.034744321140684 -0.0067168540817144
46537.737830929 0.00997905399708543 0.44455179433494 0.056931406477058 9.5621942335632 -0.0082478791181342 0.037403172969582 -0.0069393259694572
46537.747811263 0.00998033399810083 0.3879790251847 0.1777966955055 9.4391350985287 -0.0048341972504141 0.037837697024144 -0.0075844270740386
46537.757862667 0.0100514040022972 0.42492717140699 0.20923719117967 9.3309198337494 -0.006093567662852 0.034755542470523 -0.0079122630129328
46537.767892637 0.0100299699988682 0.45757809569594 0.089156612502723 9.359776858687 -0.0060930325134242 0.032666711099944 -0.0076809235609929
46537.777890483 0.00999784599844133 0.43985138134155 0.092418120627315 9.4166753298839 -0.0022840776364106 0.033100704434953 -0.008897285026844
46537.787907817 0.0100173340033507 0.40927367414032 0.17926540253322 9.3698040304013 0.00019153400905103 0.03364659876971 -0.0091241922728174
46537.797824777 0.00991695999982767 0.42607762301927 0.20553559215323 9.3491934258411 0.0021113039076934 0.031074608954253 -0.010110563431895
46537.807836012 0.0100112349973642 0.44898597956638 0.13437025333025 9.397854411965 0.0028551083215394 0.029240917611115 -0.011673478917111
46537.8178126 0.009976588000427 0.42686308263142 0.12631971533071 9.4219512501702 0.0054748420733085 0.030451279969448 -0.012496457079544
46537.827822252 0.0100096520036459 0.42503862023671 0.16578175803111 9.3985585626447 0.0078156157623122 0.030058087974031 -0.012436988517612
46537.83785118 0.0100289279944263 0.4456128272012 0.11169449432644 9.520004778248 0.0086487733979654 0.026123874777926 -0.014183440239971
46537.847797368 0.00994618800177705 0.43689590312102 0.11370532017747 9.5324840615108 0.010901957388271 0.027450793561237 -0.014206924203975
46537.857816979 0.0100196109997341 0.40515651765287 0.23571452215085 9.4386614522842 0.01211516378003 0.030750674527052 -0.014948385573379
46537.867819205 0.0100022260012338 0.42197804000494 0.19710234382822 9.3973422344415 0.010099889213025 0.027153573347994 -0.015214127737372
46537.877808121 0.00998891599738272 0.4527913340042 0.081286992253991 9.4898258992753 0.0080194058310717 0.022807537345795 -0.015684508576766
46537.887866479 0.0100583580060629 0.41433263390357 0.12621394341589 9.507567014384 0.0095824949564109 0.024504406743926 -0.015913332290251
46537.897822599 0.00995611999678658 0.38240773881803 0.22230185190351 9.3883369622264 0.0086356207129493 0.023995245732337 -0.015290332446714
46537.907895 0.01007240099716 0.40328657799533 0.20415157411798 9.4695714178925 0.0048052776060069 0.017346458872486 -0.013644782579706
46537.918071653 0.0101766530060559 0.43066359129603 0.17066383800028 9.5026357052086 0.0029954859651058 0.015827490041613 -0.014776565192751
46537.928006743 0.00993508999818005 0.42865905260162 0.16505926230024 9.4396603494273 0.00157716307034 0.015815866535371 -0.013623580413838
46537.937890631 0.00988388800033135 0.44047019471138 0.15881037295521 9.4209762970132 0.001099088609789 0.010206486555066 -0.013033543351762
46537.947877097 0.00998646600055508 0.45115466550467 0.19483881701192 9.4544898524612 0.00057122531832063 0.0078505135718058 -0.014066511848998
46537.957943869 0.0100667719962075 0.39740146567897 0.22114299446014 9.398151374592 -0.00010545847942747 0.0079539365360349 -0.014035535071648
46537.967802614 0.00985874500474893 0.36698124582713 0.16398654529112 9.4108186684032 -0.0014411397075133 0.0020223460556297 -0.013250204810901
46537.977836865 0.0100342509977054 0.38819405895306 0.17591356349745 9.5353158681427 -0.0010629687513863 -0.0038970058527148 -0.012903674089266
46537.987839303 0.0100024380008108 0.3815349501101 0.20054152897283 9.4482684879213 0.00032647656132161 -0.0020014549748076 -0.013045622975876
46537.997817355 0.00997805199585855 0.39820970759358 0.22918529962691 9.4598832147331 0.00052950507712337 -0.0080912367285864 -0.012200279529495
46538.007887457 0.0100701020055567 0.44424325145455 0.26365750468287 9.5373607325232 -3.4420684445138e-005 -0.015277551219298 -0.01340923760007
46538.017845927 0.00995847000012873 0.42725676373636 0.23666387898044 9.5948466226447 -3.8257581778367e-005 -0.013866418536404 -0.01377085196006
46538.027901422 0.0100554949967773 0.44083824917591 0.21026929713337 9.569294629248 -0.0021520189445116 -0.016400455755943 -0.012881224166051
46538.037789501 0.00988807900284883 0.44642751179952 0.30891390256337 9.6123004348608 -0.0022552161028349 -0.020415887392552 -0.012494040541143
46538.047781691 0.00999218999641016 0.39800338502959 0.32961181717886 9.5109453696317 -0.0034349336874096 -0.018879004283669 -0.012035934459972
46538.057759056 0.00997736499994062 0.39707287727516 0.30987004460203 9.5128585641869 -0.0062076936342982 -0.024919653641119 -0.013047544290976
46538.067777419 0.0100183629983803 0.38072694568388 0.32076453791173 9.5674197795589 -0.0085870395891535 -0.028206205594951 -0.01191391264733
46538.077798752 0.0100213330006227 0.3922279038313 0.22160485722497 9.507926812625 -0.01083748365078 -0.027212274755708 -0.01311632575023
46538.087779787 0.00998103500023717 0.42871871825661 0.17694912864122 9.5233727907313 -0.010954861103163 -0.033571933542352 -0.011898876887696
46538.097792093 0.0100123060037731 0.42166591051811 0.24972175934504 9.5787868721216 -0.010433631937689 -0.035079143510999 -0.010942045354541
46538.107822693 0.0100305999949342 0.4094310239404 0.22022849544328 9.5057688413034 -0.011381087147036 -0.032914771984349 -0.0099337385513601
46538.117849892 0.0100271990013425 0.42355637034934 0.092514221126791 9.5735435151079 -0.01215792407498 -0.039733056186697 -0.0091396777686561
46538.127787859 0.00993796699913219 0.40763291479694 0.13127208795777 9.7151969878417 -0.0090967354637332 -0.041648097758692 -0.0097442261033577
46538.137773275 0.00998541599983582 0.3632279775774 0.18155627476411 9.5620174396654 -0.0075237251441732 -0.035292883094889 -0.009262092187854
46538.147831931 0.010058656000183 0.41035378094079 0.18084283354949 9.6181748237156 -0.0075156663725472 -0.042447450630655 -0.0091132783596759
46538.157774126 0.00994219499989413 0.44273071379967 0.10781640851707 9.8708086001583 -0.0069763164166651 -0.047474333036057 -0.0094322866057245
46538.167774533 0.0100004070045543 0.39208610672972 0.12636894723951 9.9487023101345 -0.0040863689541654 -0.042327183080648 -0.010225443614866
46538.177791932 0.0100173989994801 0.35142319072026 0.19934860515358 9.9548819636143 -0.0029049136110406 -0.042333605618551 -0.010442127072636
46538.187773185 0.00998125299520325 0.37609471211222 0.21687631438054 10.145159669072 -0.0021811765693845 -0.045676564775768 -0.0099573080117406
46538.197785526 0.0100123410011292 0.41008550529539 0.21306986722346 10.231160718711 -0.00086550008397681 -0.042858580059403 -0.011288211809979
46538.207766858 0.00998133200482698 0.41140767950108 0.23765938713994 10.238066610905 -0.00028567507138028 -0.039360793050493 -0.011436980038483
46538.217938808 0.0101719499944011 0.46903652757592 0.23918047906895 10.276066619269 -0.00037182381067324 -0.041301674092919 -0.01210493303271
46538.227819173 0.00988036500348244 0.49831104843953 0.24627840720861 10.287096626379 -0.00029205023907226 -0.038604422978981 -0.010568193077804
46538.237750417 0.00993124399974477 0.4808043911736 0.18598164612732 10.225642132422 0.00038775729678858 -0.032932259532134 -0.010262464116133
46538.247774754 0.010024337003415 0.54351873249756 0.13930439920822 10.347075812559 0.0019615937022703 -0.036662420602314 -0.010979094498713
46538.25776172 0.00998696599708637 0.60791092262293 0.061273739326987 10.522909440675 0.0039563546469298 -0.036141557511967 -0.011547730323906
46538.267789597 0.0100278769969009 0.57504428422949 0.19807767842794 10.485018024574 0.0087869014498903 -0.026205323885172 -0.01080857077532
46538.277788947 0.00999935000436381 0.52582264159506 0.19136102666375 10.427115320888 0.0083508662324067 -0.021292025302396 -0.011927785159022
46538.287799206 0.0100102590004099 0.5418092453558 0.093086872664186 10.427443022754 0.0089747362975457 -0.020838721507037 -0.012358617385169
46538.29775133 0.00995212399720913 0.55782785855243 -0.025351158235442 10.422636569341 0.010831025852914 -0.016157413280981 -0.011539824777394
46538.307759215 0.0100078850009595 0.54136867976957 0.00056151549987424 10.36686108394 0.015434371974977 -0.012905801288834 -0.010686351060785
46538.317773367 0.0100141520015313 0.60392337780413 0.028587288174893 10.383801921349 0.01826721617873 -0.013477931095509 -0.010113898401667
46538.327907823 0.010134455995285 0.57483487113351 0.10450419494866 10.454196633147 0.020142633751921 -0.0087247414311825 -0.0095118136414168
46538.337760684 0.00985286100330995 0.52114464046349 0.10394856570636 10.401847138175 0.019686238689133 -0.0027000302165051 -0.0086955415952043
46538.347747581 0.00998689699918032 0.56267294439396 0.12507628085041 10.485135067448 0.020006302885763 -0.0012105256840294 -0.0070312103559236
46538.357762246 0.0100146650001989 0.57481200273487 0.097479838722845 10.547814807331 0.019900357452898 0.0042315531685751 -0.0077135288025351
46538.367779678 0.0100174320032238 0.57674520232464 0.14719286291442 10.472182586232 0.021578803834964 0.012743820193289 -0.0073529994821548
46538.377814305 0.010034626997367 0.59647842197594 0.20972893347726 10.299175198297 0.021815983259719 0.016527747164295 -0.0061150495598316
46538.387785226 0.00997092099714791 0.60810665867955 0.19064459345567 10.264963918552 0.019875585770761 0.018884585089651 -0.0053597921258569
46538.397754256 0.00996903000486782 0.58104565987762 0.11733290443732 10.278499330769 0.020807747905147 0.023109397326203 -0.0038973233069783
46538.407741284 0.0099870279955212 0.54139381089598 0.16615296877172 10.243174431154 0.022566085719375 0.028101487727273 -0.0037597248109316
46538.417854613 0.0101133290008875 0.50161473926158 0.24644002345596 10.188293266481 0.022739172861469 0.032727264568182 -0.0028957660892918
46538.428193412 0.0103387990020565 0.50795752837234 0.31684401993757 10.070124276509 0.022284796932248 0.035105174882955 -0.0027734011758981
46538.437913267 0.00971985499927541 0.52461389911649 0.36915741694693 10.004720635032 0.020280077392411 0.037597398650512 -0.0018683909995134
46538.447918534 0.0100052670022706 0.45441181424902 0.34883880440489 9.8828125397776 0.018807065783549 0.041727288852935 -0.0023066323495864
46538.457849382 0.00993084799847566 0.42244504211166 0.24194298374416 9.854730658811 0.017342005916017 0.040563695524995 0.0002683625028516
46538.467817282 0.00996789999771863 0.44472828579492 0.11047653618253 9.9046310599893 0.017224705028614 0.038394141196245 0.0012616081274239
46538.477943649 0.0101263670003391 0.42096404292568 0.14744005575515 9.9410614009909 0.021525999274322 0.041048520016809 0.0025813669083103
46538.487992929 0.0100492800047505 0.36438943648683 0.36701904739188 9.9954571908423 0.024970599383174 0.042277242014287 0.0024851618720637
46538.497830089 0.00983715999609558 0.3657110210138 0.4567161902831 9.9738186122159 0.024307509475698 0.042381155712144 0.0036078875912542
46538.507814705 0.00998461600102019 0.38156436786173 0.45849876174063 10.000875820384 0.021649883054343 0.043618482355323 0.0037432044525661
46538.517770907 0.0099562019968289 0.32876971268247 0.35484894747954 9.864229447326 0.018735400596192 0.048453210002024 0.0039587237846811
46538.527835338 0.0100644310005009 0.3319992557801 0.28618660535761 9.7525500302271 0.017149090506763 0.048878728501721 0.003955915216979
46538.537780468 0.00994513000478037 0.22801936741309 0.18187861455397 9.601417525693 0.017735726930749 0.047861919226462 0.0045805279344321
46538.547777331 0.00999686299473979 0.046171462301123 0.091191822370872 9.5347098968391 0.020515867891136 0.046894131342493 0.0065139487442673
46538.557751994 0.00997466300032102 0.066635742955955 -0.055416950984759 9.4750684123132 0.026090487707466 0.038976511641119 0.0078228564326272
46538.567739465 0.0099874709994765 0.16836038151256 -0.091474408337045 9.5332581504662 0.035783414551346 0.031606034894951 0.0071939279677331
46538.577758171 0.0100187060015742 0.18887132428568 0.10043175291351 9.4943244278963 0.047140902368644 0.032052129660709 0.0072023387725732
46538.587774329 0.0100161579975975 0.15676062564283 0.30174198997649 9.2251157637119 0.051027267013347 0.032006810211602 0.0064519879566872
46538.59773402 0.00995969100040384 0.2187465317964 0.19765069148001 9.1880933991551 0.049503676961345 0.025113288679862 0.0071761897631841
46538.60773537 0.0100013500050409 0.14409955202694 -0.03440691224199 9.2839593892818 0.051322625417144 0.022550795377883 0.0073117612987065
46538.617781003 0.01004563299648 -0.0168203807771 -0.027100875405691 9.2916304808895 0.057758731604572 0.0225056760712 0.0076969971039005
46538.627859763 0.0100787600022159 -0.011777323660535 0.12771425590516 9.2046409087561 0.063868421863886 0.01523882466052 0.0081969475383154
46538.637764097 0.00990433400147595 0.097884274888545 0.25740211751939 9.1043597724427 0.066574658584303 0.0090275009614422 0.0088784054075681
46538.647730731 0.00996663399564568 0.13790663365526 0.22537679989148 9.0318858065763 0.066413459796658 0.0073403758172259 0.0084646445964329
46538.657715025 0.00998429400351597 0.12953563860697 0.20720027990776 9.0056529355898 0.067053440827159 0.003248319444642 0.008450447906968
46538.667741865 0.0100268399983179 0.18174529281593 0.24218023792159 9.0208099952514 0.066265424703085 -0.0016114284720543 0.0094343807209228
46538.677749245 0.0100073799985694 0.17426849889354 0.30645820223336 9.0405484959637 0.064916110997622 -0.0039032142012462 0.0098567236127844
46538.687702186 0.00995294099993771 0.13770322405951 0.42629947189835 8.9746462215691 0.063418194347979 -0.0066462320710592 0.011523715070867
46538.697721677 0.0100194910046412 0.13975774045058 0.4936645511136 9.0232692883337 0.059611465195782 -0.0112637972604 0.012696157810237
46538.707704295 0.0099826179939555 0.12185407938299 0.49225986844656 9.0850588950837 0.056377245416415 -0.01651322767134 0.012270734138701
46538.717711491 0.0100071960041532 0.13413096747555 0.60539588817958 9.1805100608211 0.055186658603953 -0.021000743520639 0.012825624017896
46538.727856764 0.0101452730013989 0.14314132235421 0.65341150495264 9.243928551698 0.05280515981336 -0.023985631992543 0.013817780415212
46538.737801614 0.00994484999682754 0.23163512400108 0.70464977920974 9.3672392689433 0.049964885841356 -0.029438787193662 0.01375211335293
46538.747808374 0.0100067599996692 0.31726485540092 0.85788231232828 9.4527933786018 0.045678652965152 -0.030797969114613 0.01357929634999
46538.757730356 0.00992198200401617 0.32048012709078 1.005799965479 9.4120393718115 0.03929335502038 -0.029269773747421 0.013058901897492
46538.767726152 0.00999579599738354 0.30237810802716 1.0757299706572 9.4126484660398 0.031177851767323 -0.031125307685308 0.014152566612868
46538.777711237 0.00998508500197204 0.24875639182309 1.0571254750586 9.4989811961338 0.023751674002224 -0.032965011532511 0.014173181620938
46538.787731964 0.0100207270006649 0.23491793304963 0.97807165379982 9.5881440167137 0.018462422901891 -0.033757759802635 0.013920704377797
46538.797752243 0.0100202789981267 0.25281024309218 0.99465090572984 9.7347774142067 0.016389059466607 -0.03701909583224 0.014012098721128
46538.807700878 0.00994863500091014 0.26860370662835 1.0501132698704 9.8466508020757 0.013206200546616 -0.038546231457404 0.014167783912958
46538.817744784 0.0100439059970086 0.2832281506341 0.98549127938981 9.9383231817643 0.0097627704646236 -0.038207796738793 0.014732116326015
46538.82771052 0.00996573600423289 0.24155392803899 0.78227258748134 10.1315497045 0.00639035489493 -0.042045127227974 0.014340298877112
46538.837789707 0.0100791869990644 0.22809083883314 0.72553169935914 10.475762248825 0.0071553016606905 -0.043530858143778 0.014710754045546
46538.847758548 0.00996884099731687 0.44925221300817 0.98241694445527 10.266652911501 0.0083035064115869 -0.037091229422211 0.016497140938714
46538.857689717 0.00993116899917368 0.50432438105694 1.079794402787 10.045394974776 0.0006214804498489 -0.02604204500888 0.016134569797907
46538.867722068 0.0100323509977898 0.3278307238984 0.68042024236893 10.134960728559 -0.0084717416176284 -0.029749738257548 0.015916384328221
46538.877699799 0.00997773100243649 0.45055611531364 0.36069220601359 10.259871619276 -0.0045999803749842 -0.042586777518916 0.014586426678988
46538.887686645 0.0099868460019934 0.65268769801659 0.69067837511155 10.100620876384 0.0069305166812635 -0.037223260891078 0.014373962677139
46538.897681977 0.00999533200229052 0.50081454331411 0.97052161884482 9.8624177449266 0.0048289391790739 -0.023497771757416 0.014998868275569
46538.907733112 0.0100511349955923 0.27624736181699 0.7149933760181 10.198580083188 -0.0055674016977872 -0.031602605993804 0.017324038034233
46538.917853084 0.0101199720011209 0.43062025754444 0.46359436961538 10.535633070709 -0.0097737914431191 -0.034447715094733 0.017687932329098
46538.927774011 0.00992092699743807 0.46651221891278 0.67965521417308 10.079403110103 -0.0056152227266512 -0.012318557830523 0.018169742479734
46538.938337813 0.010563802003162 0.40082538607586 0.79864193204711 9.7720376435876 -0.0090029393176535 -0.013995774155945 0.018673781107773
46538.947941447 0.00960363399644848 0.61658157816448 0.63690564224005 10.043921997049 -0.012920498420006 -0.033790408032553 0.017915713941607
46538.957888383 0.00994693599932361 0.71537434143981 0.60960479590404 10.161968697492 -0.0080799236570047 -0.02290334682767 0.018442856850366
46538.967759348 0.00987096500466578 0.50581319022384 0.70024907651843 9.9849133928682 -0.004685435108454 -0.01105734480352 0.017516928322811
46538.977718541 0.00995919299748493 0.42400121169026 0.64067671504067 10.295516383938 -0.0064276198421859 -0.023276743082992 0.01713638907439
46538.987756371 0.010037830004876 0.47449102993672 0.52315520778457 10.524248926347 -0.006712976865858 -0.017869731620543 0.017760930713231
46538.997718212 0.00996184099494712 0.40109737544621 0.54390692661688 10.234621587395 -0.0035025303359793 -0.00034527187746149 0.016374791106247
46539.007759665 0.0100414530024864 0.47050276912928 0.67611588762435 10.315393349286 -0.0002111507855824 -0.010883481095842 0.01552807244031
46539.017898107 0.0101384419976966 0.67219235375989 0.9109985044807 10.423154346893 0.003323021832255 -0.011874458931466 0.014539861574263
46539.027786735 0.00988862800295465 0.63229350069591 0.96192372880859 10.141506194859 0.0017760685574167 0.008229209908254 0.013692382338124
46539.037730646 0.00994391099811764 0.46886947559152 0.7868701694873 10.05776026563 -0.0022523417261958 0.0058233284220159 0.012240024987405
46539.047723108 0.00999246200080961 0.41280405425279 0.57061964406421 10.260776225786 -0.0021124904672664 -0.00040217084128651 0.012327021239294
46539.057687671 0.00996456299617421 0.36289844611487 0.56751169745458 10.133309791918 0.0030103831028235 0.010179154784906 0.0114004680534
46539.067666386 0.00997871500294423 0.36831367919764 0.79357494283639 9.9698983231302 0.0062098256374 0.0098222815671705 0.01203039784539
46539.077654463 0.00998807699943427 0.461611627318 0.99768370141093 10.066663574661 0.00297435179179 0.0045344393320949 0.011121338168582
46539.087671841 0.0100173780010664 0.4535998832203 1.0025461461993 9.9394990384615 -0.0037313009769785 0.015237773432281 0.010281137443294
46539.097671214 0.00999937299638987 0.35995490073725 0.8755942242694 9.8937791826923 -0.010734605830432 0.016067607417439 0.0094814668268002
46539.107706788 0.0100355740069062 0.34977666562666 0.68872509062899 10.072822305288 -0.016462414955867 0.010769966304823 0.0096282468027802
46539.117732866 0.0100260779945529 0.28409516578266 0.56161132703464 10.234953959495 -0.016288052712487 0.017354971359099 0.010429509782363
46539.127672373 0.00993950699921697 0.22658589091526 0.62691962797944 10.257775865571 -0.013910844805614 0.022271225655234 0.010642583315009
46539.13764297 0.00997059700603131 0.31232800727798 0.76415168378253 10.211999485735 -0.016175718084772 0.022145041806949 0.012589195817757
46539.147685554 0.0100425839991658 0.31449880618628 0.83332393121515 10.033604562875 -0.020862360372056 0.031369285535907 0.011693816445094
46539.157696006 0.0100104519951856 0.21908398525834 0.72079034153288 9.8038188784437 -0.026479506316248 0.034810392705521 0.01127774397833
46539.167696216 0.0100002100007259 0.22934638746959 0.60541179030294 9.7819310466772 -0.02869508036881 0.025961833799693 0.01088658238158
46539.177698503 0.0100022870028624 0.26094442934915 0.6721900217575 9.5876163896756 -0.024882818313489 0.025667558729739 0.0094470950243432
46539.18766014 0.0099616369989235 0.15280276494678 0.76760651849388 9.3569289312243 -0.023557895566466 0.028055924920278 0.0089450307706917
46539.197650555 0.00999041499744635 0.05116235020476 0.5710755407198 9.5672245915406 -0.025875711231496 0.016631036182236 0.008923276155088
46539.207661822 0.0100112670043018 0.032612997674046 0.41720920961183 9.8355259028095 -0.022603354546771 0.013992380754901 0.010443784731825
46539.217647278 0.00998545599577483 -0.035878951977061 0.52928782817005 9.6619120173881 -0.018060851364756 0.023986523641666 0.010114717022051
46539.227718262 0.0100709840044146 -0.029237109180502 0.62927965394454 9.4491952147799 -0.017744223660042 0.021651545095416 0.0096100094687434
46539.237667386 0.00994912399619352 0.096348457196573 0.56101770585286 9.4962359325629 -0.019852590111036 0.013101313331103 0.010228008048432
46539.24786384 0.0101964540008339 0.18901118861709 0.42861004997493 9.5286005426785 -0.017603701594381 0.016306616331438 0.011387806841167
46539.257651951 0.00978811099776067 0.12458451032452 0.34967854247869 9.5492104612767 -0.014658646355223 0.017385623881722 0.012141135814992
46539.267648201 0.00999625000258675 0.00044683377584562 0.33679676110689 9.7621788920852 -0.01016184940194 0.013454780299464 0.011242465442743
46539.277680519 0.010032318001322 -0.062905191290531 0.25860224694086 9.7425470582724 -0.006120571991649 0.018288563254544 0.011861595626332
46539.287639488 0.00995896899985382 -0.10997441259695 0.19869190989973 9.6674499995316 -0.0033274861929016 0.020286778766363 0.011118856282382
46539.297647734 0.0100082459975965 -0.085858250707409 0.20178312341477 9.7296924996018 0.00029913673603362 0.014420761951408 0.011324527840025
46539.307645137 0.009997403001762 -0.021649513101297 0.30501565490255 9.7188786246615 0.0038887662256286 0.016210147658697 0.010477848664021
46539.317638442 0.00999330500053475 -0.0038970861361029 0.43752330666717 9.5717468309623 0.0040419512917843 0.019817625509892 0.011028671364418
46539.327653061 0.0100146190015948 -0.019827523215687 0.41803481066709 9.609029806318 0.00050015859801665 0.016615481683409 0.010595370659755
46539.337643448 0.00999038699956145 0.0057966052666657 0.39120958906703 9.7172653353703 -0.0028028651916859 0.015672659430897 0.0099465650607919
46539.347663541 0.0100200929955463 -0.032407885523334 0.59639315070698 9.5248505350647 -0.003586935412933 0.026169260516263 0.0097820803016731
46539.357697604 0.0100340630015126 -0.15597670269483 0.66965417810093 9.300457954805 -0.012164395100993 0.031051871438823 0.010704268256422
46539.36767636 0.00997875600296538 -0.22282019729061 0.29319105138579 9.4214992615843 -0.020752735835844 0.021825090723 0.010567128017959
46539.377624101 0.00994774099672213 -0.13901216769702 0.16195739367792 9.6239843723466 -0.015458825460467 0.01539232711455 0.009129058815265
46539.387627609 0.0100035080031375 -0.080750342542465 0.54320378462623 9.4514867164946 -0.0036780016413973 0.020407978047367 0.0089146999929752
46539.397620309 0.00999269999738317 -0.1247227911611 0.7829182169323 9.4638787090204 -0.0029883013951877 0.018423781340262 0.009573994994029
46539.40763595 0.0100156410044292 -0.16130437248693 0.46601048439245 9.8554569026674 -0.0050345561859096 0.0093362141392229 0.0099723957449246
46539.417845832 0.0102098819988896 -0.13370371661389 0.19462891173359 10.213153367267 0.0020281272419769 0.011448782018339 0.0077805363831859
46539.427814058 0.00996822599699954 -0.14964815912181 0.33923957497355 10.055960362177 0.01311340815568 0.021899464715589 0.007328955925708
46539.437730508 0.00991644999885466 -0.094455935253536 0.55400363872752 10.055291307851 0.017579896932328 0.01794254500825 0.0062926125368518
46539.44774172 0.0100112120053382 0.062512455034494 0.59826809291839 10.283382611673 0.017617412392479 0.014231163257013 0.0062952206563241
46539.457874496 0.0101327759984997 0.03044058677932 0.65030787898063 10.211700219922 0.017457300533607 0.028300988768461 0.0049774375578754
46539.467867713 0.0099932169978274 -0.066015501237578 0.78215669713354 9.9583951869337 0.014550705453566 0.035797840453192 0.0028853219241941
46539.477813159 0.00994544599961955 -0.052048176051941 0.67614319256351 9.8547159088937 0.0061610996355312 0.030531664385213 0.001407023635565
46539.487703446 0.00989028700132621 -0.02775594964415 0.59474671367898 9.8481585225596 0.00079393469020151 0.032326914727431 0.0017254700902303
46539.497665177 0.00996173099701991 -0.14339755719753 0.65032970662713 9.6235397441757 -0.0037051555133287 0.041661877518316 0.00070764957669572
46539.507695294 0.0100301170023158 -0.2073129236179 0.84286525063306 9.4623137825493 -0.011652882186329 0.041459095890569 0.00039150214019136
46539.517669142 0.00997384799848078 -0.15125598507521 0.9572454630381 9.2435517151669 -0.02269844985838 0.039168731506984 -0.00042622318083734
46539.527656725 0.00998758299829206 -0.15681258731393 0.84653864358239 9.0668589578919 -0.034383682379623 0.040334421780936 0.00015221029628826
46539.537660106 0.0100033810012974 -0.20388069921684 0.55526284704503 9.0651551142081 -0.04227613002268 0.034185258513796 0.001291878751845
46539.547690044 0.0100299379992066 -0.26763359433432 0.51818841998828 9.1979268470769 -0.042236210519278 0.030606969736726 0.0031350969390683
46539.557853987 0.0101639429994975 -0.40166855518417 0.53062515699003 9.2123078200154 -0.040747278941386 0.032236424276217 0.004109332398208
46539.567696158 0.00984217100631213 -0.41935827190654 0.65345638344153 9.2829566470131 -0.041104687100178 0.027252460634785 0.0064674325384768
46539.577640531 0.00994437299959827 -0.34830953112056 0.6459779259253 9.4104481499611 -0.043970484035151 0.023349091539567 0.0077608176577053
46539.587704537 0.0100640059972648 -0.29798310145248 0.6801512370365 9.4224259274669 -0.041637911429879 0.024123227808632 0.0061436950090495
46539.597635017 0.0099304800023674 -0.16339063623461 0.71833355148103 9.3910120383469 -0.041120724715397 0.018527743637337 0.0050511407576921
46539.607629322 0.00999430500087328 -0.076632040799415 0.77307851875887 9.4358752325949 -0.038992116008087 0.015096082091737 0.0038479696440383
46539.617621559 0.00999223699909635 -0.1810122346795 0.76892674094504 9.4246289477056 -0.037650798606874 0.018672669777976 0.0013177741974325
46539.627637551 0.0100159919966245 -0.31842539947758 0.56787772980329 9.5053246055498 -0.038778678815843 0.01533326931128 0.00038360806781765
46539.637650716 0.0100131650033291 -0.39816158955594 0.39194607033279 9.6902259147173 -0.036191376993467 0.0099102789145877 -0.000998433142355
46539.647588107 0.00993739099794766 -0.46232235112255 0.32932915978287 9.7081620275097 -0.029736670444447 0.0105972370774 -0.0015236681710017
46539.657594394 0.0100062869969406 -0.45130899845417 0.26602478581544 9.7275927233833 -0.02499116987778 0.0066901515157896 -0.0013296179453515
46539.66765458 0.010060186003102 -0.35598264868604 0.24271106794313 9.7866788148758 -0.020489494396113 0.0016696287884212 -0.0012036752535488
46539.677621725 0.00996714500070084 -0.32819025138314 0.096099407751658 9.8178819926444 -0.016706570236696 0.003501184470158 -0.00046212396551645
46539.687615912 0.0099941869993927 -0.34646171367567 -0.026000503411091 9.8883096937477 -0.011617584701191 0.0017145067996343 0.00012469462931102
46539.697607167 0.00999125499947695 -0.39163245662432 -0.024170427899427 9.9498682396856 -0.0079684469960127 0.0020108307796892 0.0016809904349144
46539.707622891 0.0100157240012777 -0.49172258813067 -0.032559863714513 9.8200930037327 -0.0052956799466108 0.0065677061627358 0.0030563418696772
46539.717652919 0.0100300280028023 -0.42381419991107 -0.051720884157336 9.6717440531728 -0.0029008279546192 0.0036880502383254 0.0041983905892256
46539.727602522 0.00994960299431114 -0.36973706992441 0.063242248466264 9.5871224451969 -0.0011157037614263 0.0020683427025766 0.0048061320008418
46539.737574489 0.00997196700336644 -0.44467150943575 0.048280911196325 9.4647490784174 -1.2348197212357e-005 0.0062175912971901 0.0054232122007155
46539.747573353 0.00999886399949901 -0.43764078302038 0.034048774516876 9.4426167166548 0.0031440040323695 -0.0034525473973884 0.0041912303706082
46539.757594821 0.0100214679987403 -0.35196966556733 0.25716645833934 9.4701692091566 0.0073854034275141 -0.0080031652877801 0.004128045815017
46539.767837189 0.0102423680000356 -0.41942921573223 0.44887148958844 9.1804638277831 0.007297592913387 0.0013348095053869 0.0035763389427644
46539.777668048 0.00983085900224978 -0.46578983337239 0.45960076615018 9.1468092536156 0.0032149539763789 -0.0069999119204212 0.0031358881013498
46539.787640356 0.00997230799839599 -0.36611635836653 0.48924065122765 9.3167128655733 0.00080221087992208 -0.017219425132358 0.0022905048861473
46539.797590722 0.00995036600215826 -0.37815890461155 0.5817695535435 9.2032209357373 -0.00011012075206623 -0.0089965113625043 0.0017054291532252
46539.80760253 0.0100118080008542 -0.42993006891982 0.66806912051198 9.0905227953767 -0.0022026026392563 -0.015069034658129 0.00048811478024142
46539.817603046 0.0100005159983994 -0.31567055858185 0.66577875243518 9.4922193760702 -0.0041357122433679 -0.032118179459409 0.00030839756320521
46539.827623214 0.0100201679961174 -0.29390997479457 0.7164519395699 9.6485764696597 -0.0036803554068627 -0.026767952540498 0.00012863792872442
46539.837598806 0.00997559200186515 -0.45551847857539 0.82459414863442 9.6572649992107 -0.0055778020958333 -0.020225259659423 -0.00037365776058424
46539.847603274 0.0100044680002611 -0.49808570678908 0.71844002633926 10.011045249329 -0.010807131781458 -0.03190947071051 -0.0003596090964966
46539.857591 0.009987725999963 -0.38860285077072 0.54669902238837 10.27874346193 -0.01493556201424 -0.031521050103933 0.00054483226797789
46539.867618328 0.0100273279967951 -0.36416742315511 0.68564416903011 10.14193694264 -0.014222227712104 -0.017069892588343 -3.3392572218796e-005
46539.877586278 0.00996795000537531 -0.35392730968184 0.7351075436756 10.065056401244 -0.018781893555288 -0.018745408700092 -0.00016338368638598
46539.887602808 0.0100165299954824 -0.30398821322957 0.57658641212426 10.204622941058 -0.024337609521995 -0.023399097395078 -0.00092187613342808
46539.897571283 0.00996847500209697 -0.30836998124513 0.39525345030562 10.201304499899 -0.024322968093696 -0.016247232785816 -0.0015095947134139
46539.907568971 0.00999768800102174 -0.34924948405836 0.22573043275977 10.119028824914 -0.021120022879641 -0.016228147867944 -0.0014331555064018
46539.917658089 0.0100891179972677 -0.32779206144961 0.25379086784581 10.325334501177 -0.017890519447695 -0.021698925687752 -0.0013891821804415
46539.927691494 0.0100334050002857 -0.31673825223217 0.22262223766894 10.296154326 -0.016328941530541 -0.014740586834589 -0.0012618048533753
46539.937714145 0.0100226510039647 -0.34409251439734 0.1588689020186 10.2105261771 -0.01635010030096 -0.011621998809401 -0.000385534125369
46539.947801867 0.0100877219956601 -0.31451363723774 0.14909356671581 10.257847250535 -0.016189585255816 -0.014942698987991 0.00041479599343635
46539.957745552 0.00994368499959819 -0.27407159165208 0.17657453170844 10.091910162955 -0.013180647467443 -0.0094672941397923 0.0005970765944209
46539.967615981 0.00987042899942026 -0.22793585290427 0.095248351952171 10.022668638512 -0.013785050347327 -0.0096357000188234 0.0027560151052578
46539.977664456 0.010048475000076 -0.19829047496863 -0.069158900840655 10.245498342735 -0.011355792795228 -0.016066845016 0.0041891128394691
46539.987633393 0.00996893700357759 -0.26523690372333 -0.038250065714557 10.345263591325 -0.0059999238759437 -0.0093848182635999 0.0055032459135487
46539.997603466 0.0099700729988399 -0.35484136816483 0.047602444142627 10.190349052626 -0.0011414352945521 -0.0018165955240599 0.0061312590265164
46540.007607762 0.0100042960038991 -0.30842516294011 0.048667077521233 10.151131694732 -0.0004347200003693 -0.0064401061954509 0.007197570172539
46540.017664084 0.0100563219966716 -0.17991638849909 -0.054557984106952 10.194566940522 0.0016224879996861 -0.0061820902661333 0.0090159346466581
46540.027637566 0.00997348200326087 -0.16422393022423 -0.026754286490909 10.106191899444 0.0059151147997332 0.0019962232737867 0.0089175444496594
46540.037602394 0.00996482799382648 -0.14260534069059 0.20563385648273 9.9731281145274 0.0098803475797732 0.0031592897827187 0.0091249127822105
46540.047614947 0.0100125530007062 -0.124664539587 0.35189377801032 9.8100888973483 0.0092802954428072 0.0048393963153109 0.0096851758648789
46540.057648274 0.0100333270020201 -0.21306485864895 0.17544971130877 9.720870562746 0.0049287511263861 0.0095329868680143 0.011695899485147
46540.067644183 0.00999590900028124 -0.37478512985161 -0.052332745387545 9.9211099783341 0.0062384384574282 0.0062175388378121 0.011759514562375
46540.077864077 0.0102198940003291 -0.41605236037387 0.042652166420587 10.031523481584 0.013411672688814 0.0060904080121403 0.012713587378019
46540.087629917 0.00976583999727154 -0.35238450631779 0.2751293414575 9.8676899593464 0.019016921785492 0.0093198468103193 0.012243549271316
46540.097561221 0.00993130400456721 -0.24728183037012 0.55326994023887 9.7418414654444 0.020662883517668 0.0075708697887714 0.012406516880619
46540.107550783 0.00998956200055545 -0.1866095558146 0.49642444920304 9.7556502456278 0.016312450990018 0.0064922393204557 0.012626039348526
46540.117592857 0.0100420739981928 -0.27354812244241 0.43604578182259 9.8643627087836 0.016976583341515 0.0093284034223873 0.011441633446247
46540.12752137 0.00992851299815811 -0.37509090407605 0.5002539145492 9.9309233024661 0.018745595840288 0.0092686429090292 0.01068538842931
46540.137567892 0.0100465220020851 -0.42388726846464 0.62699582736682 9.9460998070962 0.019851756464245 0.0098568464726748 0.010375580164913
46540.147549733 0.00998184100171784 -0.48976917819495 0.5968314532618 9.9022398360317 0.016813992994608 0.012798819501774 0.010218743140176
46540.157556671 0.0100069379986962 -0.5074588014657 0.53295673527253 9.928558860627 0.016555394045417 0.010347996576508 0.0092589316691499
46540.167546666 0.00998999500006903 -0.46204498124585 0.60221822498165 9.9395450315329 0.017151584938604 0.0082032970900314 0.0091120919187774
46540.17757945 0.0100327839973033 -0.46892323405897 0.8263454912344 9.870388276803 0.016993847197814 0.010818802526527 0.0089752781309608
46540.187618106 0.0100386560006882 -0.47706474895013 0.94147866754924 9.7939500352825 0.012130270118142 0.011795482147548 0.0080984864113167
46540.197622672 0.0100045660001342 -0.47878003660761 0.86301686741685 9.8219025299902 0.0042327296004204 0.010255659825416 0.0085607134496192
46540.207587079 0.00996440699964296 -0.54199303111647 0.79294933730433 9.8184221504916 -0.00071617983964269 0.012636810851603 0.0090181064321763
46540.217559109 0.00997202999860747 -0.622439076449 0.69832193670868 9.8142638279179 -0.0049032528636963 0.013256789223863 0.0096228904673499
46540.227554731 0.00999562200013315 -0.63920321498165 0.65172864620238 9.8819642537302 -0.0054982649341418 0.0070592708402833 0.0093314568972474
46540.237537317 0.00998258600156987 -0.6015077327344 0.63687434927202 9.9369296156707 -0.0042550251940206 0.0053343802142408 0.0075642383626603
46540.247553486 0.0100161689988454 -0.57590157282424 0.70812819688122 9.7939601733201 -0.0023192714149175 0.0077607231821047 0.0070461026082612
46540.257528753 0.00997526699939044 -0.5531613369006 0.79156896734903 9.6858461473221 -0.0021318807026799 0.004099114704789 0.0068741872170221
46540.267542872 0.0100141190050635 -0.49061713636551 0.72456862224668 9.6616142252238 -0.0052425985972779 -0.00086725250092935 0.0067820591344687
46540.277518604 0.00997573199856561 -0.47501456591069 0.59872332890968 9.5906470914402 -0.0081207088076862 -0.00072666462578995 0.0061922502642984
46540.287536425 0.0100178209977457 -0.53654238102408 0.61397482957323 9.5138400277242 -0.0086696024865333 -0.00064916493192146 0.0051074127246537
46540.29758288 0.0100464549977914 -0.65262102387047 0.81055360513724 9.3051990235655 -0.010715662113553 -0.0025752901921332 0.0042123008159556
46540.307592453 0.0100095730012981 -0.5994578702899 0.93201556436666 8.9500441700307 -0.01876231279652 -0.0068149966633133 0.0045584556935623
46540.317673434 0.0100809810028295 -0.48297418974642 0.71979322971166 8.8371625445261 -0.028729465877042 -0.015368747163816 0.0050506873395279
46540.327573292 0.00989985799969872 -0.55338806128445 0.37107424525491 8.9900931628472 -0.033490545995486 -0.022952935089244 0.0042060842385987
46540.337512172 0.00993888000084553 -0.65879485209179 0.33527310846667 9.1848241884201 -0.027541464096163 -0.030672994825857 0.0037356716028089
46540.347530871 0.010018698994827 -0.58967562427802 0.74333714219667 9.0757855601571 -0.022676744481739 -0.035582045601979 0.0054058208623876
46540.357524348 0.00999347700417275 -0.47270928063631 0.62463657086717 9.2583377261335 -0.030286732809478 -0.041791738761682 0.0066784477330295
46540.367511515 0.00998716699541546 -0.49637788854087 0.4074010852371 9.7562570672135 -0.032561222888056 -0.04701297794743 0.008049680573075
46540.377532633 0.0100211180033511 -0.52972620525974 0.41266592245153 9.8499985071315 -0.028817039454848 -0.038176031255315 0.0072322284871138
46540.387861144 0.0103285110017168 -0.50074227447078 0.3759060340838 9.6195987310618 -0.026244983536621 -0.034159626567018 0.0073218942140467
46540.397645256 0.00978411200048868 -0.44744093330016 0.30564512897123 9.6767639214025 -0.021501236006127 -0.045210182581965 0.0073561100819397
46540.407546448 0.00990119199559558 -0.41516979330514 0.20879835962555 9.9404243331921 -0.016549550605208 -0.04656165519467 0.0066276935696488
46540.41774149 0.0101950419993955 -0.44394432430937 0.21305860568171 9.8968306832133 -0.0093661180144271 -0.04063790691547 0.0060625395342014
46540.427758221 0.0100167310010875 -0.43430767566296 0.32539981482946 10.106346080731 -0.005949700312263 -0.045996220878149 0.0064911586040712
46540.437704157 0.00994593599898508 -0.43505652431352 0.27867484260504 10.276829168622 -0.0058882452654236 -0.042383287746427 0.0059869848134605
46540.447692469 0.00998831200558925 -0.42646804566649 0.26295861621428 10.063629793328 -0.00423100847561 -0.032460294584463 0.0056319370914415
46540.457611001 0.00991853199957404 -0.30620283881652 0.34084482378214 9.9610853243291 -0.0043013572042685 -0.036949750396793 0.0051621465277252
46540.467698456 0.0100874549971195 -0.23451741299404 0.50688810021482 9.9777525256797 -0.0033951536236283 -0.035416787837274 0.0045243245485665
46540.477781373 0.0100829170041834 -0.28201980104493 0.3039998851826 10.054244646828 -0.008171880580084 -0.030825769661683 0.0027311758662815
46540.487717691 0.00993631799792638 -0.26044683088819 0.069144902405207 10.217002949804 -0.0077035984930714 -0.037274904212431 0.0027099994863393
46540.497633846 0.00991615499515319 -0.26442980625496 0.23803816704443 10.320907507333 -0.0019175587191107 -0.033377168580566 0.0028944995633884
46540.507622005 0.00998815900675254 -0.39668033531672 0.28391744198776 10.151916381233 -0.0039369249112441 -0.020014093293481 0.0041613246288801
46540.517608454 0.00998644899664214 -0.35072328501921 0.1790648256896 10.377438924048 -0.0063208861745575 -0.029119979299459 0.0057076259345481
46540.527555082 0.00994662800076185 -0.20413979226633 0.10852510183616 10.816588085441 -0.0077682532483739 -0.02977698240454 0.0057889820443659
46540.537538527 0.0099834450011258 -0.25339382342638 0.30458633656073 10.571564872625 -0.0044235152611178 -0.0046404350438592 0.005856634737711
46540.54752488 0.00998635299765738 -0.25069474991242 0.38188338607662 10.358690141731 -0.0074979879719501 -0.0041813697872803 0.0068681395270544
46540.557491131 0.00996625100378878 -0.09966053742556 0.14923587816513 10.649106620471 -0.010720289776158 -0.016767664319188 0.0063104185979962
46540.567505855 0.0100147239936632 -0.11867145681173 0.070480496440361 10.761995627401 -0.004372246309734 -0.00274751467131 0.0066058558082968
46540.577529354 0.0100234990022727 -0.29717573828997 0.26441842197431 10.639731283291 0.0012980906367261 0.0091621125293865 0.0069634774370523
46540.587486465 0.00995711100404151 -0.32767437754647 0.37255065867816 10.751446590797 0.0012758770412172 0.0043062956499785 0.0062444558214944
46540.597516706 0.0100302409991855 -0.2923382209145 0.30579305987644 10.805214602177 0.00019049548503463 0.013387851302482 0.0054232874482703
46540.607505926 0.00998922000144375 -0.35180748777733 0.34851410089497 10.520092411851 0.0013349211622794 0.025674673607109 0.0036887943310297
46540.617559555 0.0100536289974116 -0.27785636461073 0.45997698576073 10.339523550073 0.0028251829879375 0.021458972566043 0.0016369751813753
46540.627515862 0.00995630699617323 -0.13581290991912 0.40988043789662 10.395110017562 0.0020114055397469 0.019993626681137 0.002466928904169
46540.637482823 0.00996696100628469 -0.26556097343125 0.25239837221212 10.306533514928 0.0050831947087849 0.032726582678966 0.0017533895685436
46540.64749507 0.0100122469957569 -0.42579682741656 0.18885861638031 10.193248487689 0.0097882155024671 0.035439095277121 0.0012008811332621
46540.657491837 0.00999676700303098 -0.41693230330408 0.26065482392326 10.022556214535 0.014705483177097 0.032605730985553 0.00036074896327277
46540.667540311 0.0100484739959938 -0.35757245780847 0.20550660033477 9.7150177823551 0.016611160700533 0.03890937133772 0.0012771366187819
46540.677494187 0.00995387600414688 -0.3638165891372 0.099005610284555 9.6214601150018 0.019609486595453 0.036228965637062 0.0027955661259646
46540.687544649 0.0100504619986168 -0.37858910076662 0.11365976874187 9.7405510977516 0.024579063606135 0.032156620791503 0.0018962312070699
46540.697866832 0.0103221829995164 -0.41174073565162 0.28070580343059 9.6446184330888 0.029919204065215 0.037788127672777 0.0015892965260094
46540.707504164 0.00963733199751005 -0.45761962530388 0.525519932916 9.3286856681255 0.029694323455432 0.039775908521861 0.001682402047108
46540.7176214 0.0101172360009514 -0.4538966815083 0.4321569429786 9.2594028179067 0.021677674937117 0.031802522243582 0.0029255417400418
46540.727477802 0.00985640200087801 -0.46216217928205 0.19954340153181 9.3403123952207 0.01768952369655 0.029469643907044 0.0023922104790355
46540.737479422 0.010001620001276 -0.52275285238975 0.14426189130204 9.3863455359376 0.018019595142067 0.029786197320988 0.0024293789071802
46540.747484907 0.0100054849972366 -0.53165492453128 0.36217260760673 9.5106587055469 0.018912155870757 0.02456076772284 0.0025224720711032
46540.757497949 0.0100130420032656 -0.46012668585159 0.55111671646572 9.4310298997149 0.014654832490144 0.025354152564414 0.0040656012604377
46540.767511447 0.0100134979948052 -0.45890768297385 0.51872920899587 9.4118254147577 0.0087021076166221 0.026691529679752 0.002966761071372
46540.777471328 0.00995988100476097 -0.51863653052777 0.45300982764649 9.466811602544 0.0050522914741288 0.023476800227789 0.0037937469106662
46540.787542625 0.0100712970015593 -0.52989605094861 0.40473835349951 9.4203098621624 0.0064679477530095 0.022697280193621 0.0031541848740663
46540.79748526 0.00994263499887893 -0.48677164330632 0.32578760047459 9.3869783828381 0.0084572555900581 0.018436188164577 0.0030860571429564
46540.807544125 0.0100588649947895 -0.53215089681037 0.2274944604034 9.5056616254123 0.011730667251549 0.014161759939891 0.0034316485715129
46540.817510651 0.00996652600588277 -0.56995826228881 0.32841529134289 9.6168173816005 0.017138067163817 0.013022995948907 0.002489401285786
46540.827475917 0.00996526599919889 -0.51111952294549 0.47562299764146 9.4825947743604 0.019299857089244 0.012430046556571 0.0025329910929181
46540.837475897 0.00999998000042979 -0.47301659450367 0.53350454799524 9.5127455582064 0.018767378525858 0.0096160395730855 0.0020990424289804
46540.84744712 0.00997122300032061 -0.52029410532812 0.45349386579595 9.6264987244754 0.017527271746979 0.0086191336371226 0.0013761860646333
46540.857455523 0.0100084029982099 -0.5345599895289 0.35978978592656 9.5395739158041 0.020344680984932 0.0098477635915542 0.00038975815493831
46540.86745669 0.010001167000155 -0.49516099109957 0.38878631803757 9.5701178284335 0.022154478837192 0.0045695990528211 0.00096279443169756
46540.877452552 0.00999586199759506 -0.48652684243463 0.36076837033194 9.5370701541685 0.024814807011614 0.0026646591948979 0.00025737526694293
46540.887466286 0.0100137340050424 -0.51280281606944 0.27627811478215 9.6329846310432 0.026483585959872 0.00084446031566324 0.00054426897690149
46540.897458684 0.00999239799421048 -0.49976739365902 0.28271639756483 9.6322519363867 0.028670048065891 -0.0014302087316862 0.00071162863036627
46540.907857861 0.0103991770010907 -0.48696228461017 0.3819539379301 9.6120241459287 0.030485040856007 -0.0017946774219333 0.00083588433581133
46540.917631786 0.00977392499771668 -0.45651794191864 0.43452084724059 9.5447305240394 0.028886784727606 -0.0017129758086433 0.00094900168543963
46540.927670515 0.010038729000371 -0.44831025063085 0.3650227201545 9.4723359454335 0.026172267018465 -0.0047020294373468 0.0012161514326237
46540.937612264 0.00994174900552025 -0.46629371303622 0.30318931213132 9.5889855536185 0.023464426965695 -0.0070507250217448 0.0021767287177301
46540.947701222 0.0100889579989598 -0.49815465608079 0.17441591531163 9.5624827205757 0.023577762920841 -0.0051291162684831 0.0016882194100706
46540.957669985 0.00996876299905125 -0.50635145766867 0.071438528014881 9.6858153124893 0.025696098482715 -0.0088957488282106 0.00255698649856
46540.967533338 0.00986335299967323 -0.48949873901837 0.13815274881265 9.7573330156159 0.030286683710308 -0.011086386503979 0.003085438523776
46540.977509597 0.0099762589961756 -0.47611892816561 0.25404983649075 9.6459380632735 0.034910181153762 -0.0074704285283822 0.0024876227452096
46540.987499809 0.00999021200550487 -0.43837608894077 0.29040236101714 9.6684473537825 0.036336653980697 -0.011460364249125 0.0037794793334282
46540.997488867 0.00998905799497152 -0.43095467559966 0.33759200686457 9.7508802507151 0.037165155883593 -0.014319309611756 0.0042145574334139
46541.007645321 0.0101564540018444 -0.43276147425971 0.43321820583488 9.7488732131079 0.037339882501054 -0.010962413169993 0.0038268738184019
46541.017632958 0.00998763700044947 -0.44715225312075 0.44443547495965 9.6830122311417 0.035088400125896 -0.011427051194494 0.0041498427456416
46541.02755052 0.00991756199800875 -0.46428941515264 0.4330301537157 9.8463903964704 0.032084140107011 -0.01656199351532 0.0035933663337953
46541.037488385 0.00993786500475835 -0.47003600287974 0.51396563065835 9.8507418369999 0.03129751909096 -0.012115694488022 0.003294361383726
46541.04745649 0.00996810499782441 -0.45444560244778 0.5608307860596 9.7590105614499 0.028069891227316 -0.010065840314819 0.0040647071761671
46541.0574645 0.0100080100019113 -0.36085376208061 0.52713616815066 9.8198789772324 0.022656407543218 -0.014824464267596 0.0040580010997421
46541.067474543 0.0100100429990562 -0.35409569776852 0.50922074292806 9.9479971306475 0.020438446411736 -0.012384794627456 0.0051623009347808
46541.077432588 0.00995804499689257 -0.36956134310324 0.52375263148885 9.9685475610504 0.018010179449975 -0.0079275754333379 0.0066784557945636
46541.087435791 0.0100032030022703 -0.36113714163776 0.65493473676552 10.008095426893 0.015371652532479 -0.0054874391183372 0.0075201874253791
46541.097462157 0.0100263659987831 -0.43094157039209 0.69142452625069 9.9420511128589 0.010775404652607 0.0029256767494134 0.0077511593115722
46541.107450418 0.00998826100112638 -0.41529033483328 0.43096084731309 9.8307134459301 0.0079470939547161 0.0027643252370014 0.0093229854148364
46541.117477542 0.0100271240007714 -0.24348178460829 0.27880672021613 10.010201429041 0.010847029861509 -0.0066758235485488 0.0085065376026109
46541.127477638 0.010000096001022 -0.29586451691704 0.48634571218371 9.9741262146845 0.018830475382282 0.0026100499837335 0.0086150569622193
46541.137442997 0.00996535900048912 -0.40770983937949 0.69375885535615 9.8045472824818 0.02150940407494 0.0098160424861735 0.0091077984178864
46541.147469803 0.010026805997768 -0.32003336347256 0.45802502705273 10.02076519011 0.016784493463699 -0.0031973638867526 0.0093946286552034
46541.15770316 0.0102333570030169 -0.26809835895168 0.35150627299482 10.315805411593 0.019272319444144 0.0025697406962603 0.0094044343569229
46541.167440628 0.00973746799718356 -0.41611860510893 0.5616253320456 9.9820995998541 0.023743471527523 0.022014279591821 0.0083432692033845
46541.177423753 0.00998312499723397 -0.39048081434259 0.62550653223876 9.816949659876 0.020678450798394 0.015104637653048 0.0087582788228768
46541.187424591 0.0100008380031795 -0.2145636921912 0.51395055240294 10.041087210895 0.017231683178635 0.0071809420050909 0.0087315369994453
46541.197433836 0.0100092450011289 -0.27855913836252 0.4160829695425 9.9656691292604 0.01915143070184 0.023536800704327 0.0083518064495285
46541.207432067 0.00999823099846253 -0.37854026760814 0.50515552411113 9.8499937598714 0.021471716096564 0.026193780598678 0.0079300354820992
46541.217857955 0.0104258880019188 -0.32939422746692 0.47067719549446 9.9770446958907 0.019530458682079 0.017943213508876 0.0081175301597843
46541.227464944 0.00960698899871204 -0.26921509334688 0.34699061617029 9.9417429915071 0.020218889879767 0.027200731482545 0.0082004006358167
46541.237402804 0.00993785999889951 -0.30960782934485 0.32267702374475 9.843591542781 0.022965556397802 0.032300621760163 0.0093718405404442
46541.247472556 0.0100697520028916 -0.35547665494312 0.41758547018303 9.8753328113638 0.025783222938132 0.029402528496139 0.0092320644593776
46541.257470584 0.0099980279992451 -0.31648015670165 0.29763264965558 9.9045178896593 0.026583739497412 0.034214149221718 0.010505254790471
46541.267523231 0.0100526469977922 -0.30176813319641 0.11008275220724 9.8518502062104 0.0309976785728 0.03608552683846 0.0103394665719
46541.277485472 0.00996224099799292 -0.25840791321695 0.23868033937616 9.9646276752788 0.03977602678688 0.032792197812691 0.010524046586115
46541.287485641 0.0100001690007048 -0.2376617262344 0.52489828846973 9.801918523987 0.044716122768848 0.040867868140788 0.009972939598198
46541.29746554 0.00997989900497487 -0.28607246729924 0.57175854519927 9.6338107453889 0.043407204353521 0.046430187919669 0.0095194986584683
46541.307469093 0.0100035529976594 -0.33565159720436 0.51221476341938 9.8133291335806 0.039923123700493 0.041679659731719 0.008409573859698
46541.31763744 0.0101683469983982 -0.3457688576237 0.65432254890647 9.6931297635435 0.039616655145419 0.049326710771961 0.0077916377807433
46541.327473951 0.00983651100250427 -0.37779852898015 0.8845691665705 9.382340299012 0.035892656873606 0.056096704156167 0.0064263921136318
46541.337438769 0.00996481799666071 -0.38820874963313 0.91251879158493 9.3272992541602 0.026325258342565 0.049546698532742 0.006734433296587
46541.347407493 0.00996872399991844 -0.43182743718816 0.87065097284719 9.3663893660362 0.01848546959118 0.050412693752831 0.005418268302099
46541.357553815 0.010146322005312 -0.57231332160993 0.87491832692011 9.1431009611307 0.014079149152503 0.056049289689906 0.0048530280567841
46541.367423447 0.00986963199829916 -0.57736632336844 0.92707057788209 9.0225308169611 0.0088202767796278 0.04695939623642 0.0052980738482665
46541.377417018 0.00999357099499321 -0.51174637486318 0.89804999119978 9.239291194417 0.0047027352626837 0.039325986800957 0.0074058627710265
46541.38744151 0.01002449200314 -0.6186894186337 0.89777249251981 9.3456725152544 0.0031693249732811 0.044608088780814 0.0079524833553726
46541.397414837 0.00997332700353581 -0.68182600583865 0.90869661864184 9.4450366379663 -0.00026257377271106 0.041839375463692 0.0077406108520667
46541.407405033 0.00999019599839812 -0.62876710496285 1.0104571258456 9.5074311422713 -0.0029951877068044 0.038825969144138 0.0069545192242567
46541.41757182 0.0101667869967059 -0.66043703921842 0.93688855696873 9.3567064709306 -0.0066574095507837 0.043187073772517 0.0071173413406182
46541.427480268 0.00990844800253399 -0.65215148333566 0.80937527342342 9.407930500291 -0.0089992981181662 0.03701351270664 0.0065657401395254
46541.437586235 0.0101059669977985 -0.58483876083531 0.76601398240991 9.5083959252474 -0.0073749034004413 0.030826985800644 0.0050798791185966
46541.447571055 0.00998482000431977 -0.63437794671001 0.77394688504842 9.4364865364603 -0.0059236678903751 0.033729937930547 0.0034658972508071
46541.457560707 0.00998965199687518 -0.65329625470351 0.76258485229116 9.2701685559912 -0.0065021177068188 0.028146947240965 0.0031575126631861
46541.467529842 0.00996913499693619 -0.64555681649798 0.77292212444748 9.3580582725925 -0.008337800050796 0.02016440515482 0.0040113857637082
46541.477490897 0.00996105500234989 -0.79284829402329 0.65957880578036 9.2918395317037 -0.010777130043177 0.023342244381597 0.0039991778991519
46541.487543303 0.0100524060035241 -0.89911604991979 0.53236698491331 9.2990186019481 -0.0127155605367 0.016618907724358 0.0033138012142791
46541.497437424 0.00989412099443143 -0.84797864243182 0.54534693717631 9.3890458116559 -0.011885226456195 0.004878571565704 0.0057807310321373
46541.507461724 0.0100243000051705 -0.87577684606705 0.67652989659986 9.2148889399075 -0.011686442487766 0.0083782858308484 0.0060341213773167
46541.517578413 0.0101166889944579 -0.94392531915699 0.64093041210988 9.0345455989214 -0.015604976114601 0.0030070429562211 0.0076520031707192
46541.527863484 0.0102850710027269 -0.91636652128344 0.4505308502934 9.2423337590832 -0.018926729697411 -0.013032013487212 0.0089057026951113
46541.537514642 0.0096511579977232 -0.85082154309093 0.23506622274939 9.3763986952207 -0.018307720242799 -0.01659421146413 0.010184347290845
46541.547388714 0.00987407200591406 -0.94677331162729 0.28235128933698 9.3578738909376 -0.012110062206379 -0.014829579744511 0.010981695197218
46541.557377806 0.00998909199552145 -0.9573373148832 0.42467859593644 9.429097807297 -0.0099515528754224 -0.023666142782834 0.012023940917635
46541.567410226 0.0100324200029718 -0.90289671765072 0.57768180654597 9.3704931362024 -0.009777319944109 -0.024308721365409 0.01301934977999
46541.577396223 0.00998599699960323 -1.0531972100031 0.63838953556407 9.068709165772 -0.013781221952493 -0.016643913160598 0.014474447312991
46541.587388935 0.00999271199543728 -1.1690726285026 0.37308610522946 9.0726527909062 -0.018996538659619 -0.030206326186508 0.012498280216043
46541.597367597 0.00997866200486897 -0.97220173422725 0.29853818944504 9.1259848722703 -0.015793057860676 -0.046253877258532 0.011585038183636
46541.607406239 0.0100386419944698 -0.86091647409316 0.55975746102829 8.9543271414298 -0.010427099181575 -0.043364295669752 0.012121282456091
46541.617389437 0.00998319800419267 -1.0791490029792 0.74409884187404 9.0375580702153 -0.013322534304338 -0.047046151319289 0.013217590087677
46541.627413448 0.0100240109968581 -1.1212016525323 0.66401401559294 9.504769359683 -0.019149654158688 -0.062946728621396 0.013658951574526
46541.637426533 0.0100130850041751 -1.0293414046525 0.606126913254 9.6951539557306 -0.022697206034884 -0.060158719328186 0.014374608838347
46541.647403461 0.00997692799865035 -1.1085501939546 0.6769528762659 9.459045862371 -0.021862125129652 -0.051590911428958 0.015060917512595
46541.657409508 0.0100060469994787 -1.1085426648614 0.67653994482601 9.5639939830153 -0.022149806360204 -0.063997274714615 0.015125279885706
46541.667399314 0.00998980599979404 -0.98834126513219 0.58479395310211 9.859644885563 -0.020135335406173 -0.072328683507423 0.01484998790285
46541.677360121 0.00996080700133462 -0.97363507536236 0.63960486013679 9.8360431527286 -0.012876035095247 -0.064786880981309 0.013976989717422
46541.687401183 0.0100410619998001 -1.021884814058 0.63294413111628 9.9280616798193 -0.01120562983096 -0.069125348834113 0.014310441259809
46541.69741574 0.0100145569958841 -1.0237620919493 0.61567251144883 10.190822427846 -0.0092937853563163 -0.074818546508996 0.014011875070838
46541.707393423 0.0099776830029441 -1.0947177781569 0.60394663473151 10.279424063669 -0.0062287175528688 -0.065962764532646 0.013006593810212
46541.717390608 0.00999718499951996 -1.0981651114334 0.60824463952178 10.311460454119 -0.0061959099199385 -0.066280349852749 0.01335510473868
46541.727387349 0.00999674099875847 -0.99908034471837 0.68620794359352 10.505776386001 -0.0057210234319477 -0.070174297374837 0.011855839027878
46541.737809142 0.010421793005662 -0.94796329301061 0.84021175205449 10.412509928101 -0.0055093699171556 -0.060455152768612 0.011589463173696
46541.74744145 0.00963230799970916 -0.93325379905902 0.84511498924631 10.234713438886 -0.010067964429582 -0.05575187985332 0.011322543697642
46541.757375662 0.00993421199382283 -1.0384257292002 0.65065274085937 10.441471423053 -0.015663269765145 -0.059189597875322 0.010530162142996
46541.767373066 0.00999740400584415 -1.0232568698201 0.55269482973046 10.572545709595 -0.015188779300373 -0.058687158194024 0.0092686378215463
46541.777383681 0.010010614998464 -0.90972833934712 0.75608060527089 10.425193853156 -0.014570962405317 -0.05349008446492 0.0086808421483144
46541.787441648 0.0100579669961007 -0.94365408844505 0.97053851448026 10.411664775182 -0.02001881804452 -0.046849571795182 0.0094277158260672
46541.797397322 0.00995567400241271 -0.9479959751783 0.90696273730822 10.504685058905 -0.031213495337842 -0.044800636025905 0.010301058452157
46541.807392114 0.00999479200254427 -0.87278657890155 0.74285332671199 10.729477300069 -0.039225971037165 -0.041103040622019 0.010383399684334
46541.817473645 0.0100815309997415 -0.93085359206632 0.69364532770519 10.794880705059 -0.044026575381591 -0.029864584528716 0.010132389731684
46541.827428564 0.00995491899811896 -1.0133005532564 0.79016352854941 10.6944735993 -0.044136589074352 -0.020424396849409 0.010325531271931
46541.837668582 0.0102400179966935 -0.96065047026791 0.684148999267 10.727927559405 -0.048529100713199 -0.019825237321997 0.010321701581141
46541.847356715 0.00968813300278271 -0.99256289972773 0.65954164937695 10.649338425494 -0.045542735606219 -0.012834451723698 0.01088844634397
46541.857373292 0.0100165769981686 -1.0614934647686 0.68128540197041 10.50353266167 -0.045051825265286 -0.0054897839651431 0.011013179392375
46541.867388771 0.0100154790052329 -1.0446194450533 0.45762259167485 10.51546776242 -0.045308051475493 -0.0078253163703717 0.010975202483518
46541.877431828 0.0100430569946184 -1.0679865282953 0.47098420292362 10.775332598057 -0.039840843754169 -0.0083300189148159 0.010513922110991
46541.887410636 0.00997880800423445 -1.133043549051 0.70243657248508 10.706882708348 -0.033977217191044 0.0032769839224065 0.010268833794342
46541.897381236 0.00997059999644989 -1.1530920166933 1.1311910866123 10.366925302096 -0.033655134612387 0.011396936334046 0.0096495087251908
46541.907403708 0.0100224720008555 -1.1999382141893 0.88967742362047 10.348606506782 -0.046251364420529 0.011658395883939 0.0073920824164121
46541.917598096 0.0101943879999453 -1.3145324820609 0.5002658100774 10.364400530764 -0.04749765975745 0.011682636501348 0.0067287700539503
46541.927474429 0.00987633300246671 -1.2763376097518 0.32201093856579 10.38124545115 -0.042368010793832 0.011890741026146 0.0057779545458578
46541.937568131 0.0100937019960838 -1.228991968289 0.45661929778092 10.094948633477 -0.034692809174758 0.013543629872224 0.0059582613639791
46541.947546722 0.00997859100607457 -1.3590281730457 0.56259140311378 10.277551338456 -0.032502387798544 0.01441458539139 0.0060290221593822
46541.957547113 0.0100003909974475 -1.5444089470888 0.33787769264671 10.384298637687 -0.034050029628762 0.013897897582682 0.0063636688354749
46541.967410107 0.00986299399664858 -1.4448076050255 0.32396103874971 10.433933842034 -0.029704525184448 0.014127712945279 0.0086251185101537
46541.977451297 0.0100411900057225 -1.3663114642717 0.37042188293725 10.262298765729 -0.027191346406781 0.021365556003488 0.0082568507336306
46541.987453036 0.0100017389995628 -1.4638697446309 0.46194860049666 10.07508395087 -0.026088644445764 0.026625222602964 0.008704323123586
46541.997413362 0.0099603259950527 -1.4049542829363 0.25668131042216 10.015116358239 -0.029106847778899 0.02215443921252 0.010040174655048
46542.007429526 0.0100161640002625 -1.2745511404958 0.022654113858839 9.9293139045034 -0.026488320612064 0.018567273330642 0.0098886484567909
46542.017409214 0.00997968800220406 -1.3145184694215 0.053590996780013 10.011166818828 -0.020956572520255 0.018830182331046 0.0098243511882723
46542.027449741 0.0100405269986368 -1.5174206990082 0.32554234726301 9.9422617960037 -0.017622586642216 0.026513154981389 0.010519698510031
46542.037434734 0.00998499299748801 -1.559972594157 0.39692099517356 9.7915475266031 -0.020535198645884 0.02709618173418 0.011035743733527
46542.047833346 0.0103986120011541 -1.4418517050335 0.26635784589753 9.7549253976127 -0.024906918849001 0.021614254474053 0.011265882173498
46542.057348028 0.00951468200219097 -1.3499989492784 0.3258091690129 9.6073515879708 -0.023353381021651 0.022702616302945 0.010664999847473
46542.067356544 0.0100085160011076 -1.3046991068867 0.51381779366096 9.3937588497751 -0.022991373868403 0.024388223857504 0.010817249870352
46542.077362358 0.010005814001488 -1.3325542408537 0.55314512461182 9.3164100223089 -0.026754667788143 0.020950490278878 0.010864162389799
46542.087447487 0.0100851289971615 -1.4235511047256 0.37561335592005 9.4134135189625 -0.031259967619922 0.019619916737046 0.011228038031329
46542.097417492 0.00997000499774003 -1.5263984390168 0.38086135253204 9.2328714911182 -0.028762472476933 0.022639429226489 0.01167083232663
46542.107446404 0.0100289120018715 -1.5018436731643 0.49168714965223 9.0115957674504 -0.027574101605393 0.019324514842516 0.011426207477635
46542.117402354 0.00995595000131289 -1.3832171221896 0.3010840772044 8.9448914023329 -0.027015486364584 0.010178337616139 0.01076077635599
46542.127401907 0.00999955299630528 -1.3965495538612 0.33843646562374 8.9813726919829 -0.021044663409897 0.0071095869737178 0.011788159902592
46542.137392539 0.00999063200288219 -1.450032120782 0.39007599578018 8.9745667881855 -0.014869963898412 0.0051506489276601 0.011950435917203
46542.147398797 0.0100062580022495 -1.4141623026647 0.41409459641315 9.1952817699577 -0.01200496931365 -0.0033604484114889 0.012862370529622
46542.157381259 0.00998246199742425 -1.404447957265 0.41352540695118 9.484649504464 -0.0099537239166028 -0.0056658811497656 0.012388014950179
46542.167334863 0.00995360399974743 -1.4488407636752 0.4798965959085 9.5603470787944 -0.0079416653291124 -0.00071799897730074 0.011692312707652
46542.177310841 0.00997597799869254 -1.350884649124 0.51144210652223 9.4339950169753 -0.0085219155297455 -0.0016662991307056 0.012213965801504
46542.187319524 0.0100086829988868 -1.2834319517554 0.43952579054389 9.626895764429 -0.0081241282002837 -0.0057963542610998 0.0097473709312787
46542.197300914 0.00998139000148512 -1.3310371589921 0.45665192196231 9.7379263997646 -0.0052960089702411 -0.0038634011219348 0.0097297652915869
46542.20732895 0.0100280359984026 -1.3289465851433 0.41116413366796 9.7808674397999 -0.006567107624705 -0.0015318909536446 0.010713800497849
46542.217427561 0.0100986110046506 -1.3478545973718 0.36529951361777 9.9058373238299 -0.0073100414809992 -0.0032326073105979 0.010387730423172
46542.227352954 0.00992539299477357 -1.395621407766 0.3149895865751 9.9671517252554 -0.0077495352588493 0.00038278378599178 0.010934070859696
46542.23731557 0.00996261600084836 -1.4035981966011 0.31448114858884 9.9800139664671 -0.0077181049700219 0.002524366218093 0.0098459602307414
46542.24732285 0.0100072800050839 -1.3834834671109 0.38726397630051 9.9085068714971 -0.0098183892245186 0.0036727112853791 0.01140956619613
46542.257323867 0.0100010169990128 -1.3515959470443 0.36092937985543 9.9469808407725 -0.011656130840841 0.0046038045925722 0.012510631266711
46542.267341832 0.0100179649962229 -1.3229465549877 0.27699997287712 9.9111337146566 -0.013404211214715 0.0049032339036864 0.012638036576704
46542.277300402 0.00995857000089018 -1.2810145717395 0.27641497694555 9.9841186574581 -0.012815579532508 0.0027862488181334 0.013299831090198
46542.287299117 0.00999871500243898 -1.3221873859786 0.31608773040372 10.044055858839 -0.012700742602631 0.0047158114954134 0.014489356426669
46542.297327378 0.0100282610001159 -1.3774492780818 0.35384457084316 10.055417480014 -0.012352631212237 0.0069034397711014 0.014796952962668
46542.307301204 0.00997382599598495 -1.3867868863695 0.43534788521669 10.113779858011 -0.013342236530401 0.0065414238054362 0.015178410018268
46542.317321114 0.0100199100052123 -1.3861438534141 0.51707570243418 9.9979378793098 -0.015321901050841 0.010429210234621 0.015793648515528
46542.327299848 0.00997873400046956 -1.404212275402 0.50278434706906 9.8922871974133 -0.017862615893215 0.011569328699428 0.016085601238199
46542.337297973 0.00999812499503605 -1.3318504340917 0.4140466950087 9.9067041178013 -0.019362223509233 0.0054554293945135 0.015520761052469
46542.347327749 0.0100297760000103 -1.2402378689779 0.39081969075739 10.000483500131 -0.015863889982848 0.0042681149853365 0.015328646894599
46542.357739613 0.0104118640010711 -1.3049271886312 0.50535673714378 10.008420975111 -0.011679806485421 0.010494897737536 0.014604349860409
46542.367354712 0.00961509899934754 -1.3974881103366 0.56992322657222 10.009437828845 -0.010391335512607 0.0098491630769056 0.014113197381347
46542.377280206 0.00992549399961717 -1.4255248937861 0.48638474258638 10.059817154518 -0.011289635185716 0.0089417886153698 0.013889217774145
46542.387289406 0.010009199999331 -1.4629761597182 0.52054203119843 9.9037095813403 -0.0092256899078589 0.013777520323064 0.012474835108024
46542.397296218 0.0100068120009382 -1.4324697357604 0.48848072651866 9.7070431441393 -0.01054183642168 0.011547392274605 0.01276060984182
46542.407271003 0.00997478500357829 -1.3186242753964 0.38909361754086 9.7593416725184 -0.010726060958428 0.002636283433414 0.013083018365547
46542.417473954 0.0102029510017019 -1.3063806340869 0.28158957490973 9.8282154216406 -0.0072676518146639 0.0052573409184019 0.012749565610715
46542.427377668 0.00990371399529977 -1.3972385389739 0.33451113867327 9.8301931083945 -0.0043565040424643 0.0090767397806416 0.013888130769108
46542.437384693 0.0100070250045974 -1.4200927581278 0.41597446787228 9.7754741421353 -0.0034465284360946 0.0073117288135453 0.014521411153742
46542.447444452 0.0100597589989775 -1.4047188444086 0.40813329769144 9.707483020815 -0.0038625491706804 0.0073744694915135 0.01374719948068
46542.45750414 0.0100596880001831 -1.3946810177473 0.33074330303772 9.5718555676928 -0.0039341667950784 0.0086622990677865 0.013312619558578
46542.467535517 0.0100313770017237 -1.3709088650852 0.32682180758207 9.5141722325389 -0.0031265417758166 0.0056409542076185 0.013114226624792
46542.477385213 0.00984969599812757 -1.3509425353224 0.29473353644476 9.606561397658 -0.0018205605094441 0.0023108110764758 0.014148592631073
46542.487464908 0.0100796949991491 -1.3393411550241 0.28488850597804 9.6315871880093 -0.0004494764330275 0.0033381894150044 0.013686803736412
46542.497352614 0.00988770600088174 -1.3558799817705 0.41104023008134 9.5434791098079 0.00082244503192662 0.0060999610027537 0.01453778317595
46542.507327893 0.00997527899744455 -1.3881779845049 0.43234919556914 9.4358572433367 -0.0013934217228624 0.0086349668523407 0.014586115699558
46542.51751047 0.0101825770034338 -1.3784462868292 0.25103681623377 9.4614386568362 -0.004853408464433 0.0055742218244896 0.014450198344624
46542.527293802 0.00978333199600456 -1.3430693438048 0.2282912937987 9.5717728583108 -0.0019938971947681 0.0028045885508161 0.01487616859293
46542.537308625 0.0100148230048944 -1.3392939422341 0.3685875997289 9.5194569295642 0.0017356873844471 0.0058444002681937 0.015728743303991
46542.547283719 0.00997509399894625 -1.301389850899 0.46605945976956 9.4809433901296 0.0019763342767801 0.0054207402279647 0.014491431808392
46542.557247369 0.00996364999446087 -1.3149813732641 0.41164554080413 9.6030668816101 0.0017533841352631 0.00335212919377 0.014801717037133
46542.567281157 0.0100337879994186 -1.3935391672745 0.31952370968351 9.6832618493686 0.0011738765149736 0.0075998098147045 0.013059959481563
46542.577324658 0.0100435010026558 -1.4322032921833 0.34697015323098 9.6775225719633 0.0044987950377276 0.0083423383424988 0.013847465559329
46542.587311765 0.00998710699786898 -1.3799427983558 0.52208463024633 9.7064991861688 0.0068644757820684 0.004531987591124 0.01355234572543
46542.597275289 0.00996352400397882 -1.3156913786025 0.60620693570938 9.7011293082435 0.0054253044147582 0.0079231894524554 0.013194993866615
46542.607273906 0.00999861700256588 -1.2973926718121 0.65318589535298 9.704604912007 0.0036080087525444 0.0094332110345871 0.012958744786623
46542.617274207 0.0100003009938519 -1.3019987710403 0.60151301105003 9.7567741752059 -0.00055119256033723 0.008466729379399 0.012606433068629
46542.627278935 0.0100047279993305 -1.3366339553842 0.52636105939253 9.822958048925 -0.0011315136762866 0.010301719972489 0.011784968108335
46542.637278998 0.0100000630045542 -1.3380688620766 0.55111690048365 9.8354743415863 -0.0026447866248436 0.011445961976616 0.011415222892085
46542.647261781 0.00998278299812227 -1.3555335327651 0.6508643654111 9.8478531903483 -0.0045145686311171 0.013405567680123 0.012921939458272
46542.657255294 0.00999351299833506 -1.3731085028503 0.63589971059943 9.8775302117961 -0.0076428833364495 0.016659732528105 0.012038148539531
46542.667832282 0.0105769880028674 -1.3622922274228 0.57000475400952 9.8801506800267 -0.011123950835982 0.016941772648889 0.012302426258602
46542.677325424 0.00949314200261142 -1.3545983933094 0.61075904090809 9.7931430780227 -0.013340358210585 0.020678006751556 0.012662062319811
46542.687286473 0.00996104899968486 -1.369763634313 0.62123518477188 9.6142016163193 -0.016254804478997 0.023859805738822 0.01197025297184
46542.697280559 0.0099940859945491 -1.367264089166 0.4963399070561 9.6493463738714 -0.018468083807148 0.020159334877999 0.013042715026064
46542.707303249 0.0100226900030975 -1.3370294757911 0.39287892099768 9.7518494177907 -0.019420871236075 0.017219434646299 0.012271307772154
46542.717402358 0.0100991090002935 -1.3770150544224 0.44532208284803 9.8625870051221 -0.017580240550664 0.020666519449354 0.013276111606331
46542.727283232 0.0098808740003733 -1.4441977962591 0.56540877042083 9.9263839543538 -0.017340204468064 0.023890541531951 0.012759194865381
46542.737246495 0.00996326300082728 -1.4319281268202 0.6593674548577 10.028716361201 -0.020304173797855 0.024875960302159 0.012855315635574
46542.747235284 0.00998878899554256 -1.3712789077972 0.54309233662905 10.016083907021 -0.024676047728177 0.029705066256835 0.012203518290238
46542.757252906 0.010017622000305 -1.3241670716276 0.44308848613469 9.9112663209675 -0.02557064056895 0.03065980631831 0.010485490546702
46542.767269135 0.0100162290036678 -1.3482170108835 0.35808521321449 9.8834163728224 -0.024381044483608 0.032204835370563 0.011162666964697
46542.777320305 0.0100511700002244 -1.4118744592509 0.23483243123231 9.890223916899 -0.021629887811066 0.034307110064979 0.010355266919992
46542.787282012 0.0099617070009117 -1.4404232903633 0.13357756654747 10.011585329364 -0.017003904639406 0.033124043555232 0.012488976881994
46542.797234356 0.00995234400033951 -1.4789097968088 0.29807093156535 10.04337252996 -0.010544318943496 0.035290937021947 0.011220130349695
46542.807245476 0.0100111199935782 -1.5229633272875 0.46249029183054 9.8233116504656 -0.010200171101971 0.043651796468655 0.01079411079724
46542.817363613 0.0101181370046106 -1.5437888281944 0.36451174805596 9.6435499028958 -0.011703145436676 0.041896526998357 0.010632994177654
46542.827292849 0.00992923599551432 -1.5473905039652 0.27500498584757 9.6499324174614 -0.011924673621174 0.037386547948603 0.010580045051006
46542.83724194 0.00994909099972574 -1.6081269283704 0.27509423797043 9.4976475548422 -0.010165972577998 0.041374065756313 0.011921038293355
46542.847236554 0.0099946140035172 -1.6752628891149 0.22316510227487 9.3931354216159 -0.0087805766912983 0.038289455892866 0.012292882549352
46542.857227616 0.00999106199742528 -1.6509684557476 0.14037033693364 9.5412251083735 -0.0078009901876036 0.028901037508936 0.012031450166949
46542.867234984 0.0100073680005153 -1.6430231873855 0.33526978639359 9.4593063421175 -0.0047693416594631 0.030940881882596 0.011563232641907
46542.877827562 0.0105925780007965 -1.7258347092777 0.60605431843455 9.1525703907998 -0.0069159404105436 0.035653749600206 0.012461247745621
46542.88731557 0.00948800799960736 -1.742749502886 0.61633617066937 9.1460198321799 -0.015219049348962 0.025777187160175 0.011843060583778
46542.897251202 0.00993563199881464 -1.7393070774531 0.38929074506896 9.3360968573529 -0.023601191946618 0.021156109086149 0.013162601496211
46542.907256637 0.0100054350041319 -1.8404660158351 0.37843213330862 9.31779732875 -0.025365013154625 0.025142192723227 0.014909711271779
46542.91735977 0.0101031329977559 -1.9123661134599 0.40241231331233 9.3052277294375 -0.028289261181431 0.020686863814743 0.015520254581012
46542.927362318 0.010002547998738 -1.9248361964409 0.40103046631548 9.4435085700218 -0.029388872004217 0.011078334242531 0.016679716393861
46542.937400162 0.0100378440038185 -1.9461907669748 0.40674089636816 9.5321272845186 -0.029182041203584 0.011207584106152 0.016903258934781
46542.94733554 0.00993537799513433 -1.9710171519285 0.53679976191293 9.4667231918408 -0.028118235023047 0.0082754464902288 0.016604270094564
46542.957427921 0.0100923810023232 -1.8996895791393 0.57381979762599 9.5423197130647 -0.02879349976959 0.0005781295166945 0.01671162958038
46542.967290826 0.00986290499713505 -1.8422411422684 0.54471682798209 9.570366756105 -0.030474474804151 -0.0021170899108097 0.016106885143323
46542.977781466 0.0104906400010805 -1.9120149709281 0.57075430378478 9.5152617426892 -0.030733303583528 -0.0026950264241882 0.015249352371824
46542.987321984 0.00954051800363231 -1.9295477252889 0.54865115821706 9.5273274812858 -0.032349808045999 -0.00878277246056 0.014979449516051
46542.99730417 0.00998218599852407 -1.9880555664956 0.5453734844845 9.575488359093 -0.032489336839099 -0.012707856591476 0.014459032088643
46543.007226515 0.00992234500154154 -2.0974122315212 0.50337746181183 9.499035105229 -0.032853936313234 -0.014241178102755 0.013335677275347
46543.017364982 0.010138466997887 -2.116745396793 0.40763584254005 9.5079998394447 -0.031626345866249 -0.022665001387341 0.012265325684045
46543.027273616 0.00990863399783848 -2.0819535872741 0.42993546615905 9.525009863528 -0.030734393986312 -0.03057375117924 0.013179526831438
46543.037232409 0.00995879300171509 -2.053820549183 0.43237514623519 9.5312483839988 -0.030733734888365 -0.032949188502354 0.013190097806722
46543.047211078 0.00997866900434019 -2.0260374668055 0.45742887429991 9.564046126399 -0.02996667465511 -0.038431810227001 0.012663583135714
46543.05722572 0.0100146419936209 -1.9844668467847 0.43876454315492 9.6524492074391 -0.031077173456844 -0.044358038692951 0.011890545665357
46543.067249441 0.0100237210062915 -2.018191819767 0.35814486168169 9.5480718263232 -0.031308597438317 -0.043338332889008 0.011689463815553
46543.077223205 0.00997376399755012 -2.1005430468019 0.25919813242943 9.4551060523748 -0.03132980782257 -0.047079582955657 0.01157554424322
46543.087223414 0.0100002089966438 -2.0787565897817 0.028888412565018 9.5327901445185 -0.029991836649184 -0.058199145512308 0.011868712606737
46543.097279659 0.0100562450024881 -1.9565581013144 -0.023324849319735 9.6319266228408 -0.022155561151807 -0.063336773685462 0.013368905715727
46543.107255902 0.00997624300362077 -1.8832143861172 0.10464387807823 9.6787226294146 -0.014390726979036 -0.063281757632643 0.012767569858368
46543.11727074 0.0100148379933671 -1.8792822281997 0.16292729636649 9.7182442350025 -0.0099296179321802 -0.066317493987746 0.012707934379613
46543.127206395 0.00993565500539262 -1.8591398939697 0.10770820191152 9.7414275997521 -0.0087086752423532 -0.067214869889584 0.011583244222671
46543.137208518 0.0100021229955019 -1.8394539098743 -0.05111302837521 9.7047784597893 -0.0053998739560002 -0.066758139406147 0.01201175758927
46543.147202873 0.00999435500125401 -1.8088608233931 -0.066021074118928 9.6588516908209 -0.0016408928626002 -0.066696918495225 0.01286349395088
46543.157195291 0.00999241800309392 -1.8246916998841 0.0014670869989108 9.6179389371977 0.0021527410667898 -0.065465880720941 0.013351969858248
46543.167198412 0.010003120994952 -1.9099379449015 0.022562023949074 9.5887730966181 0.0030553299067714 -0.0645079986128 0.01268267437951
46543.17720965 0.0100112380023347 -1.9112372531663 -0.034237279643287 9.6838771321254 0.0050240304207557 -0.06898429882088 0.013385773222584
46543.187244782 0.0100351319997571 -1.8137766651914 0.068398312303206 9.7741805623066 0.0077729258576423 -0.070819653997748 0.012585407239196
46543.197248147 0.0100033650014666 -1.7774051654126 0.18491856545773 9.7725934779606 0.008505986978996 -0.067086205898086 0.011992096153317
46543.207246661 0.00999851399683394 -1.8116793906008 0.23144578063907 9.8674394562665 0.0075300889321466 -0.065289775013373 0.013325281730319
46543.217337164 0.0100905030049034 -1.8325624820106 0.24202891354321 10.005463537827 0.0034110755923246 -0.062739808761367 0.013943989470771
46543.227198749 0.00986158500018064 -1.840143109709 0.36718457651173 9.9818290071525 0.0018824142534759 -0.055188837447162 0.015246891050156
46543.237203587 0.0100048379972577 -1.8718016432527 0.57501189003497 9.8492696560797 -0.0018994478845455 -0.047993511830088 0.014380357392632
46543.247177567 0.00997397999890381 -1.8845663967648 0.57970510652972 9.8198442076677 -0.0069980307018637 -0.047425985055574 0.013741303783738
46543.25720194 0.0100243730048533 -1.8423164372501 0.50624934055026 9.8254175765176 -0.0095333260965841 -0.048803587297238 0.012841108216177
46543.267203816 0.0100018759985687 -1.8465889716626 0.53736693946772 9.8584299400399 -0.0085953271820965 -0.046593549202653 0.01160494198375
46543.277186181 0.0099823650016333 -1.9173906259132 0.56776189854757 9.9743154490339 -0.007805528104782 -0.044482516822255 0.010624700686188
46543.287204662 0.0100184809998609 -1.9222370320262 0.44614761376543 10.231428131679 -0.0081391988890647 -0.046235639298916 0.0095754955832596
46543.297278329 0.010073666999233 -1.8619614772223 0.41584047170062 10.487878911927 -0.006358819055705 -0.044734793404079 0.0087901712457707
46543.307255655 0.00997732600080781 -1.8537322556389 0.52392440094552 10.538312075138 -0.0028549961973493 -0.035053074393467 0.0082726455589051
46543.31720393 0.00994827499380335 -1.8461524172931 0.5712907408037 10.549200263867 -0.0036492467677469 -0.029097613234447 0.0073092487250693
46543.327201534 0.00999760400009109 -1.7781195546991 0.55341212968314 10.604370224287 -0.0047533597525848 -0.02638297124928 0.0063073614163089
46543.337180441 0.00997890700091375 -1.8172966214943 0.50910031023067 10.582969690644 -0.0062453557896971 -0.016038525561888 0.0044927572038626
46543.347173876 0.00999343500006944 -1.9130571282701 0.41670026369607 10.511454237047 -0.0077385524212425 -0.010110746727605 0.0039643436232832
46543.357186345 0.0100124689997756 -1.8781885590296 0.22779022414166 10.67982110149 -0.0095582695580562 -0.014703634718464 0.0044466920797907
46543.367184664 0.00999831900116988 -1.9449102751752 0.24625669052041 10.900632936267 -0.0073340291243477 -0.0080820895106945 0.0041996882678221
46543.377181502 0.00999683800182538 -2.0214837338989 0.37671818694235 10.839397995827 -0.0060869247556956 0.0052247239159097 0.0054372350276488
46543.38717555 0.00999404799949843 -1.9611711738141 0.384440458901 10.882478296453 -0.010351886042341 0.0035980153285232 0.0044596497735015
46543.397186051 0.0100105009987601 -1.9050454977419 0.39257939006585 10.949066551985 -0.01298410313599 0.0084598130292448 0.0053312023074763
46543.407215336 0.0100292850038386 -1.9311386730807 0.35340248155597 10.749826569187 -0.015926487665592 0.019907841074858 0.0046920219613548
46543.4173264 0.0101110639952822 -2.0053228721186 0.22093710932257 10.780632583809 -0.020326514515753 0.018979664913629 0.0060987186671516
46543.427440182 0.0101137820020085 -2.0227944413008 0.19681154292419 10.912327696238 -0.02113403733839 0.019969715176585 0.0066059108670789
46543.437343237 0.00990305499726674 -2.0636402751057 0.15675981148556 10.849728541802 -0.020671431737631 0.029476757900097 0.007149524237017
46543.447271335 0.00992809799936367 -2.1156242338398 0.16986083976273 10.808159260532 -0.021394216976987 0.030737244215083 0.0085520956014645
46543.457226143 0.00995480800338555 -2.1412105987638 0.22449671379832 10.848695371452 -0.022359584430439 0.03283165758282 0.0089747812612448
46543.467420571 0.0101944280031603 -2.1174190089493 0.17573220672857 10.636536065734 -0.022637146765873 0.039768908945397 0.0092395640720581
46543.477420722 0.0100001509999856 -2.0631761576069 0.13809237571928 10.481190655874 -0.022043574750992 0.038482072603588 0.0095036294612494
46543.487363886 0.00994316399737727 -2.0725097339658 0.18246351936139 10.372277057493 -0.019751038538343 0.037175261713049 0.010227585042062
46543.497249188 0.00988530200265814 -2.096943273871 0.12338399145718 10.112975498869 -0.019323382757592 0.043396472456092 0.010128947285753
46543.50725213 0.0100029419991188 -2.1360717827903 -0.0073686072613947 9.9413041740387 -0.019141375343953 0.040082001587678 0.01037510519289
46543.517235522 0.00998339199577458 -2.1315310153718 -0.063008316172186 9.8104885479329 -0.01483916904236 0.034516701349527 0.010936839413956
46543.527216883 0.00998136099951807 -2.075636363066 -0.070057068746358 9.5105502657429 -0.009943293686006 0.034710696147098 0.010265313501863
46543.537210152 0.00999326899909647 -2.0521259086061 0.015541491565596 9.2441877258815 -0.0062377996331051 0.028743591725033 0.010507516476583
46543.547230829 0.0100206770002842 -2.0503370223152 0.060715267830757 9.1693245669993 -0.0046076296881393 0.022573552966278 0.010176389005096
46543.55715627 0.00992544100154191 -2.0890014689679 -0.033727022343857 9.1188008819494 -0.0038264852349184 0.019042020021336 0.011208930654332
46543.567163849 0.0100075790032861 -2.0690062486227 -0.082742968992278 9.091230749657 -0.00034551244968067 0.010919217018136 0.010768091056182
46543.57714636 0.00998251100099878 -1.9711153113293 0.060273476356563 9.0578511372084 0.0035553144177714 0.0037598344654155 0.012382377397755
46543.587151985 0.0100056249939371 -1.9466630146299 0.065242454903079 8.9648584666272 0.0040075172551057 0.0025493592956031 0.012056520788091
46543.597170898 0.0100189130025683 -1.9588335624354 0.020506086667617 9.0634296966331 0.0062773896668399 -0.0050510445987373 0.012112542669878
46543.607225206 0.0100543079970521 -1.9273285280701 0.075885173667475 9.1394752421381 0.0096107812168139 -0.0099963879089267 0.011828661269396
46543.617185666 0.00996046000364004 -1.9082292488596 0.070877397617353 9.0260189558174 0.012463664034292 -0.0088764297225877 0.012206862078987
46543.627175933 0.00999026699719252 -1.8270298615307 0.01089578797475 9.0624061124448 0.016538614429148 -0.0187289652642 0.011775332767139
46543.637130063 0.00995413000055123 -1.8036703823011 0.032736419778538 9.2442051955781 0.021175322264776 -0.02481462047457 0.011603532852068
46543.647159949 0.0100298860052135 -1.9237648249559 0.082680956811757 9.2680994162414 0.027075523925059 -0.021717927403384 0.010154002924258
46543.657144632 0.0099846829980379 -1.9372551012125 0.029778813289994 9.3636795038052 0.031441195336301 -0.030637238292877 0.009361402485619
46543.667193094 0.0100484619979397 -1.8358768360306 -0.069488008703505 9.6318525782344 0.034217516035855 -0.039579152548945 0.0091751921127761
46543.677146447 0.00995335300103761 -1.764135310626 -0.13932980739798 9.6843746914992 0.040267388630477 -0.036052779666603 0.0078514132958597
46543.6871513 0.0100048530002823 -1.7516500140321 -0.097100336288283 9.6796534877743 0.047221780335906 -0.036947862716613 0.0067187013014808
46543.697142543 0.00999124300142284 -1.6869925119273 -0.01068528584504 9.8191004646082 0.05259151328552 -0.043642683309121 0.0062553961062587
46543.7071526 0.0100100569979986 -1.6177236351382 0.031012507031716 9.803995394917 0.056858786292692 -0.039265280812753 0.0047995866903199
46543.717309338 0.010156737997022 -1.6443750898675 -0.023514369023042 9.6980060856794 0.058192468348788 -0.03502098869084 0.0027596486867719
46543.727130963 0.00982162500440609 -1.6359938263874 -0.14105221366959 9.6527801728275 0.05936359809647 -0.040252840387214 0.0016557013837561
46543.737138244 0.0100072810018901 -1.6446797524293 -0.15767938161915 9.6493331469034 0.062580558381999 -0.041756914329132 0.0014223461761927
46543.747134758 0.00999651399615686 -1.7421227895649 0.010932525623725 9.5041131748679 0.066240474624699 -0.037483877179762 0.00053399424976378
46543.757119911 0.0099851530030719 -1.7981143711301 0.14046764678017 9.5051461986377 0.063573403430995 -0.041950295602798 0.00038189511229921
46543.767136321 0.0100164100003894 -1.6957522154606 0.21379249976314 9.603989268842 0.061477392916345 -0.047645751262378 2.7610845454329e-005
46543.77717471 0.0100383889948716 -1.6361943831415 0.27680862479867 9.5308958785157 0.058110283978894 -0.044212888573021 -0.0010520307813638
46543.787171462 0.00999675200000638 -1.6768002256703 0.28063233107887 9.4285514967384 0.05314974138206 -0.044663955287068 -0.00073522616415925
46543.797136444 0.00996498200402129 -1.6732901918198 0.21264748141704 9.5299587722276 0.049573780174751 -0.052550361994008 -0.0021879422395354
46543.807862545 0.0107261009979993 -1.6764866630468 0.19183535920448 9.6977549563935 0.049717213148538 -0.052925307694907 -0.0020892509036051
46543.817213459 0.00935091399878729 -1.6616836635898 0.34673505532381 9.7260517129345 0.051400631176257 -0.050986511540671 -0.0014338632680643
46543.827167609 0.00995415000215871 -1.6028261140513 0.50421479702524 9.8539489559943 0.049879536499819 -0.05253803480957 -0.0034552837778547
46543.837144161 0.00997655199898873 -1.5628321969436 0.60873257747145 9.8930166125951 0.046561606024846 -0.049820329588135 -0.0049784912111765
46543.84713018 0.00998601900209906 -1.5378073674021 0.59566269085074 9.8549141207059 0.042827865121119 -0.046208280149914 -0.0071807175295
46543.85718583 0.0100556499965023 -1.4978012622918 0.61767328722312 9.9133820026 0.040432685352951 -0.048662538127427 -0.009204109900075
46543.867120115 0.00993428500078153 -1.466751072948 0.63402729413966 10.00954970221 0.038014282550008 -0.046796157408313 -0.010880493415064
46543.877109184 0.00998906900349539 -1.4296484120058 0.61642820001871 10.024272246878 0.035646640167507 -0.042110733797066 -0.013680919402804
46543.887132314 0.0100231299948064 -1.4109511502049 0.6160039700159 10.094896409847 0.031933144142381 -0.040763623727506 -0.015549781492384
46543.897120995 0.00998868100577965 -1.4228684776742 0.70091837451352 10.15306694837 0.027438672521024 -0.03643858016838 -0.017474314268526
46543.907140828 0.0100198329964769 -1.4298932060231 0.78985061833649 10.109751906114 0.02184987164287 -0.029580793143123 -0.020112167128247
46543.917396938 0.0102561099993181 -1.4103042251196 0.80626802558602 10.128464120197 0.01322639089644 -0.026865674171655 -0.02126384205901
46543.927214028 0.00981709000188857 -1.3470785913517 0.73251782174811 10.179499502168 0.0039884322619738 -0.023584323045907 -0.021972765750159
46543.937183039 0.00996901100006653 -1.3362968026489 0.7110951484859 10.201639576842 -0.0021088325773222 -0.017384174589021 -0.023796350887635
46543.947305336 0.0101222969969967 -1.4044572822516 0.72620087621301 10.280428640316 -0.0084435076907239 -0.012117048400667 -0.02420039825449
46543.957298778 0.00999344199954066 -1.4089936899138 0.76178074478106 10.332954344269 -0.014889981537115 -0.0082249911405674 -0.025620838516316
46543.967129223 0.00983044500026153 -1.4246846364268 0.7656086330639 10.303426192628 -0.022953984306548 -0.00036124246948226 -0.026768212738869
46543.977228857 0.0100996340042911 -1.4756869409627 0.73475233810432 10.261587263734 -0.030259886660566 0.0053749439009401 -0.027213980828038
46543.987162348 0.00993349099735497 -1.4460488998183 0.71533448738867 10.222664174174 -0.035455903661481 0.0068772023157991 -0.028683383703833
46543.997127116 0.00996476800355595 -1.3935565648456 0.73259431428037 10.171009548048 -0.039823018112259 0.0095911219684292 -0.030047876148258
46544.007131143 0.0100040269971942 -1.3783230801187 0.72356516713831 10.074303115841 -0.04359506539542 0.013268953673165 -0.031110194726019
46544.017859633 0.0107284900004743 -1.3589546181009 0.52939539206757 10.105907648465 -0.048013305586107 0.01320761062219 -0.032082165517116
46544.027221383 0.00936175000242656 -1.3552114253858 0.33868608325743 10.197031501195 -0.048129809748191 0.014419969028862 -0.033611840689549
46544.037133863 0.00991247999627376 -1.3843847115779 0.28510817076882 10.132466776016 -0.045935338285962 0.020704973674532 -0.033830564586116
46544.047096156 0.00996229299926199 -1.4069320048412 0.30417194515349 9.9848417596133 -0.043150537543068 0.024322227623353 -0.036450979898199
46544.057081229 0.00998507300391793 -1.3812322041151 0.16127115338047 9.8779904956713 -0.042100456911608 0.02306639347985 -0.037259332913469
46544.067087409 0.0100061799967079 -1.3141773734978 -0.054889519626601 9.8698469213206 -0.038941388374867 0.021304434457872 -0.038928932976449
46544.07709314 0.0100057310046395 -1.3250257674731 -0.14906109168261 9.7881198831225 -0.032449180118637 0.024380269289191 -0.041206093029981
46544.087085587 0.00999244699778501 -1.3785869023522 -0.24362692793022 9.6954019006542 -0.027251803100841 0.025062728895813 -0.041701679075484
46544.097102537 0.0100169500001357 -1.3990638669993 -0.41360288874069 9.758851615556 -0.022934532635715 0.021450319561441 -0.041914427214162
46544.107128582 0.0100260449980851 -1.3967742869494 -0.58625245542958 9.8700988732226 -0.018243352740358 0.021033271627225 -0.041828263132037
46544.117124113 0.00999553099973127 -1.383218143907 -0.66062958711515 9.9599790422392 -0.011309849829304 0.022031780883141 -0.040835523662232
46544.127153879 0.0100297660028446 -1.332065422321 -0.63269514904787 10.082172185903 -0.0057298723549084 0.02129651375067 -0.042069195112897
46544.137108547 0.00995466799940914 -1.2693556089728 -0.58976587669069 10.135576358018 -0.00066889150167217 0.024316536688069 -0.043203315845962
46544.147119941 0.010011393998866 -1.2269572676269 -0.60513099518709 10.084579904315 0.0031694422235787 0.027890056184859 -0.043147318469068
46544.157092991 0.00997305000055349 -1.2355286774829 -0.60812634590903 9.9749779186679 0.0058200258900419 0.03239904775713 -0.042921220698708
46544.167082062 0.00998907099710777 -1.3125493758604 -0.73901239402267 9.9527512308677 0.0070380220065356 0.033168690593561 -0.042454537593902
46544.177065794 0.00998373200127389 -1.3137269694814 -0.90726553491927 10.036098546238 0.011268318705555 0.030558887004526 -0.042723856954816
46544.187078243 0.0100124489981681 -1.2945229240592 -0.83368070468138 10.105203764302 0.019806570899722 0.030700053953848 -0.042397778411594
46544.197091668 0.0100134250023984 -1.3112744854503 -0.50791359897917 9.9905281996566 0.027412085264764 0.03677204586077 -0.043404611649855
46544.207072406 0.00998073800292332 -1.2868283126327 -0.3090715591323 9.8413939697081 0.028203772475049 0.036980238981655 -0.043190919902377
46544.217144614 0.0100722079951083 -1.1933140657378 -0.35989582526245 9.9085648742519 0.026020706603792 0.031871203134407 -0.04450478191702
46544.227079381 0.00993476700386964 -1.1701069558772 -0.40231645147308 9.9820851431141 0.028095100613223 0.035036022664246 -0.046590564629467
46544.237098302 0.0100189209988457 -1.2670509124956 -0.31855398375212 9.966817371647 0.03174533552124 0.038152119264609 -0.046993979935047
46544.247084201 0.00998589899973013 -1.2838882756212 -0.2268208861893 10.0422047659 0.033526535193054 0.034035801374917 -0.04723338294479
46544.257067603 0.0099834020002163 -1.2598000342781 -0.11781275326091 10.183054051015 0.035484554914096 0.03317243116868 -0.050747375503072
46544.267098205 0.0100306019958225 -1.3056550291364 -0.011430840271772 10.160635943363 0.037925871676981 0.039133066493378 -0.052249269177611
46544.277094108 0.00999590300489217 -1.2895667747659 0.078723785768994 10.159160551858 0.039552490925434 0.036564606519371 -0.054193378800969
46544.287108368 0.0100142599985702 -1.221156758551 0.10714521790364 10.21202646908 0.039963117286619 0.035687915541466 -0.055647871980824
46544.297055649 0.00994728100340581 -1.2271182447684 0.096068435218098 10.148917498718 0.042131649693626 0.041620728210246 -0.0581486911837
46544.307062742 0.0100070929984213 -1.2344205080531 0.096073169935383 10.08612487391 0.042945902239582 0.041931118978709 -0.060517387506145
46544.317095703 0.0100329609995242 -1.1928674318451 0.090347194445076 10.069966142823 0.043929016903645 0.039148451131903 -0.062272779380223
46544.327866282 0.0107705789996544 -1.1971473170684 0.088075115278314 9.9681812214 0.045628664368098 0.042937683462117 -0.06424486247319
46544.337143804 0.00927752199640963 -1.2420352195081 0.11734384798657 9.82946403819 0.047275864712883 0.0433910309428 -0.066428133102211
46544.347055049 0.00991124500433216 -1.2235799365819 0.18725227078858 9.7546794324615 0.047648485005951 0.03986287630138 -0.06893641313688
46544.357030253 0.00997520399687346 -1.2230429460946 0.28891443017029 9.6200725175923 0.045788712255058 0.040969444856173 -0.072446951166348
46544.36705918 0.0100289270048961 -1.2599065041804 0.35581226564475 9.3962766399534 0.0412124054168 0.042669028127747 -0.073942908491396
46544.377079059 0.0100198789950809 -1.2523755285534 0.31949542579804 9.2348951439604 0.03386804460428 0.039039173908585 -0.075880472217686
46544.387120519 0.0100414600019576 -1.2390141992704 0.24290611192833 9.0469308723663 0.026362337913638 0.036114297822297 -0.078313401385033
46544.397064365 0.00994384600198828 -1.2817620693798 0.20494019513908 8.8489562415114 0.021395487226592 0.034264153148952 -0.079487391177278
46544.407049668 0.00998530299693812 -1.3149477589728 0.24219416586822 8.7571628052847 0.017595164142603 0.02731553017661 -0.080788282500687
46544.417102214 0.0100525460002245 -1.3003155951269 0.35379504098799 8.783853384492 0.013952389521213 0.021322200650118 -0.083989540125584
46544.427235341 0.010133126997971 -1.3110832558579 0.49473578483979 8.7640903768182 0.010172031093031 0.0190088705526 -0.085713109106746
46544.437333272 0.0100979310009279 -1.2934457674792 0.58629041711382 8.7413668202955 0.0023987264290762 0.01488403996971 -0.088699142740734
46544.447250997 0.00991772500128718 -1.2493089023573 0.59148185454675 8.7364667972511 -0.0066775825352852 0.010614433974254 -0.091913771329624
46544.457222534 0.0099715370015474 -1.2514825670037 0.49239457636474 8.7506917776635 -0.014863445154992 0.0078657688781157 -0.09377170563018
46544.467172615 0.00995008099562256 -1.2689301819532 0.40187038991003 8.8713380110139 -0.019148428381744 0.0022129035463984 -0.096367949785653
46544.477186399 0.0100137840054231 -1.2734106546602 0.42396983142352 9.0745973093619 -0.021713664124482 -0.0038145319855614 -0.099669757317805
46544.487313969 0.0101275699998951 -1.2707840564612 0.50891935670999 9.2021727129576 -0.02348461450581 -0.0041393521877272 -0.10162279372013
46544.497119767 0.00980579799943371 -1.264621447992 0.55003145320349 9.3067118060139 -0.025883922329938 -0.0056559493595681 -0.10473187466211
46544.50710963 0.00998986299964599 -1.2368682307932 0.50432173522297 9.4961900351118 -0.030408833980448 -0.0084645569556329 -0.1086780934628
46544.517117444 0.0100078140021651 -1.2031229961742 0.47670347493952 9.6262565298451 -0.03389050888338 -0.0077978734122879 -0.11288137944338
46544.527095914 0.00997846999962348 -1.1568145467481 0.4254179536986 9.7018030503683 -0.037071932550873 -0.0065381924004448 -0.11638817252687
46544.537091341 0.00999542699719314 -1.0931073647359 0.36484526064381 9.7727225928131 -0.040493142668242 -0.007055963540378 -0.12115694664784
46544.547132878 0.0100415369961411 -1.0790962600255 0.27614347154724 9.7974692038911 -0.043491171268006 -0.0029960690093213 -0.12683190465066
46544.557026165 0.00989328700234182 -1.1215318210217 0.16293195081515 9.6933288233074 -0.046898995577805 -1.1658657923136e-005 -0.12990961895306
46544.567017824 0.00999165899702348 -1.1406820478684 -0.015962841807122 9.6527794998113 -0.049996646241134 -0.0013794098592347 -0.1332921761101
46544.577021081 0.0100032570044277 -1.1498947406882 -0.24942841553605 9.7244825748396 -0.051002149304964 -0.0026994983803495 -0.13626184969359
46544.587027157 0.0100060760014458 -1.1889705295849 -0.31137415320565 9.7503901886137 -0.04872332690922 -0.00060707362329705 -0.14005207223955
46544.597061823 0.0100346659964998 -1.2019799501472 -0.2709230302248 9.6958666603216 -0.048884827872837 0.00061198742019751 -0.14321526140362
46544.607053866 0.00999204300023848 -1.1515379576251 -0.31011457569108 9.6633966612734 -0.050984103691911 -0.00078031069283212 -0.14579897219308
46544.617134267 0.0100804009998683 -1.1104322639813 -0.47692738933742 9.6781871620824 -0.054386988138124 -0.0008387640889073 -0.14865812636411
46544.62707409 0.00993982300133212 -1.1173574243841 -0.6452532809368 9.68097908777 -0.054441439917406 0.0022240505244288 -0.1516104074095
46544.637860736 0.0107866460020887 -1.1646738107265 -0.72075528879628 9.6861572246045 -0.054483223929795 0.0030154429457645 -0.15447384629807
46544.647088088 0.00922735199856106 -1.1880477391175 -0.77218199547684 9.6669036409138 -0.054640240340326 0.0038066265038998 -0.15736976935336
46544.657001838 0.0099137500001234 -1.1852805782499 -0.81686969615532 9.6101580947768 -0.054418204289277 0.0048196325283148 -0.16013130395036
46544.667022984 0.010021146001236 -1.1893034915124 -0.88468924173202 9.6366243805602 -0.053180973645885 0.0041026876490676 -0.1632196083578
46544.677044371 0.0100213869955041 -1.1834829677856 -0.97614585547222 9.6830907234762 -0.050530327599003 0.0037992845017075 -0.16424266710413
46544.687009738 0.00996536700404249 -1.1923355226177 -0.99167897715138 9.7274321149548 -0.045359778459152 0.0047518918264513 -0.16815126703851
46544.697045545 0.010035806997621 -1.2280751942251 -1.0011921305787 9.7317622977116 -0.040961811690279 0.0055781080524836 -0.17097557698274
46544.707055313 0.0100097680042381 -1.2070189150913 -1.0555983109919 9.7886929530548 -0.034759039936737 0.0027043918446111 -0.17417874043533
46544.71722096 0.0101656469996669 -1.1478410778276 -1.0739135643431 9.8280540100966 -0.029498683946227 0.0029782330679194 -0.17686842937003
46544.72709778 0.00987681999686174 -1.1712049161535 -1.1015865296916 9.8662959085821 -0.023627881354293 0.0043119981077315 -0.18045366496452
46544.737110358 0.0100125780008966 -1.1874791787304 -1.0529585502379 9.9152115222948 -0.017284699151149 0.0046131983915718 -0.18367511521984
46544.74707945 0.00996909199602669 -1.1852323019209 -1.0044097677022 9.9513147939506 -0.011543494278477 0.004171718632836 -0.18810534793687
46544.757053305 0.00997385500522796 -1.1954874566327 -1.0025933025469 9.954552574858 -0.007429970136705 0.0051014608379106 -0.19180054574634
46544.767012855 0.00995954999962123 -1.2145693381378 -0.98654430716484 9.9858796886293 -0.0026119746161993 0.004831241712224 -0.19591946388439
46544.77706365 0.0100507949973689 -1.2458189374172 -0.99091766109011 10.005892735335 0.0008413215762306 0.0061660554553904 -0.19900504430173
46544.787097172 0.0100335219976841 -1.2441960968046 -1.0568100119266 10.009853825035 0.004306123339796 0.0061051471370819 -0.20355828765647
46544.797109892 0.0100127200057614 -1.2405216822839 -1.0597935101376 10.070925751279 0.0091172048388266 0.0046598750665196 -0.206452044508
46544.807047841 0.00993794899841305 -1.2312934299413 -1.000109483617 10.087166888588 0.013626624113003 0.0066218938065416 -0.2091802378318
46544.817117406 0.010069564996229 -1.2070244154501 -0.93797806107442 10.058926855299 0.017942630496052 0.0073911097355604 -0.21360070215703
46544.827063592 0.0099461860008887 -1.2089707531326 -0.91294635191326 10.081752827005 0.020505735921644 0.0066169432752263 -0.21718859683347
46544.837097942 0.0100343500016606 -1.2233901401627 -0.92915439912627 10.084984902954 0.022451875533398 0.0081804017839424 -0.22126730730845
46544.847052607 0.0099546650017146 -1.2218466191383 -0.94473123925733 10.045552167511 0.024494594203388 0.008358841516351 -0.22561621121219
